"","subID","Sex","Age","lat","task_num","Task","cond","InvCond","trial","Stimuli","ExpectedResp","Resp","RT","accuracy"
"1","1","female",21,"right",1,"HFC",1,"Upright",1,"Humains_cib044",1,1,357,"Hit"
"2","1","female",21,"right",1,"HFC",1,"Upright",2,"Humains_cib138",1,1,291,"Hit"
"3","1","female",21,"right",1,"HFC",1,"Upright",3,"Humains_cib118",1,1,273,"Hit"
"4","1","female",21,"right",1,"HFC",1,"Upright",4,"Humains_cib066",1,1,316,"Hit"
"5","1","female",21,"right",1,"HFC",1,"Upright",5,"Humains_cib120",1,1,275,"Hit"
"6","1","female",21,"right",1,"HFC",1,"Upright",6,"Humains_dis136",0,0,NA,"CorrectRejection"
"7","1","female",21,"right",1,"HFC",1,"Upright",7,"Humains_dis137",0,0,NA,"CorrectRejection"
"8","1","female",21,"right",1,"HFC",1,"Upright",8,"Humains_cib055",1,1,319,"Hit"
"9","1","female",21,"right",1,"HFC",1,"Upright",9,"Humains_dis128",0,0,NA,"CorrectRejection"
"10","1","female",21,"right",1,"HFC",1,"Upright",10,"Humains_dis123",0,0,NA,"CorrectRejection"
"11","1","female",21,"right",1,"HFC",1,"Upright",11,"Humains_cib041",1,1,391,"Hit"
"12","1","female",21,"right",1,"HFC",1,"Upright",12,"Humains_dis091",0,0,NA,"CorrectRejection"
"13","1","female",21,"right",1,"HFC",1,"Upright",13,"Humains_cib070",1,1,333,"Hit"
"14","1","female",21,"right",1,"HFC",1,"Upright",14,"Humains_dis077",0,0,NA,"CorrectRejection"
"15","1","female",21,"right",1,"HFC",1,"Upright",15,"Humains_dis138",0,0,NA,"CorrectRejection"
"16","1","female",21,"right",1,"HFC",1,"Upright",16,"Humains_cib039",1,1,352,"Hit"
"17","1","female",21,"right",1,"HFC",1,"Upright",17,"Humains_cib058",1,1,345,"Hit"
"18","1","female",21,"right",1,"HFC",1,"Upright",18,"Humains_dis135",0,0,NA,"CorrectRejection"
"19","1","female",21,"right",1,"HFC",1,"Upright",19,"Humains_cib046",1,1,289,"Hit"
"20","1","female",21,"right",1,"HFC",1,"Upright",20,"Humains_cib036",1,1,338,"Hit"
"21","1","female",21,"right",1,"HFC",1,"Upright",21,"Humains_cib127",1,1,490,"Hit"
"22","1","female",21,"right",1,"HFC",1,"Upright",22,"Humains_cib117",1,1,283,"Hit"
"23","1","female",21,"right",1,"HFC",1,"Upright",23,"Humains_dis107",0,0,NA,"CorrectRejection"
"24","1","female",21,"right",1,"HFC",1,"Upright",24,"Humains_dis112",0,0,NA,"CorrectRejection"
"25","1","female",21,"right",1,"HFC",1,"Upright",25,"Humains_dis103",0,0,NA,"CorrectRejection"
"26","1","female",21,"right",1,"HFC",1,"Upright",26,"Humains_dis113",0,0,NA,"CorrectRejection"
"27","1","female",21,"right",1,"HFC",1,"Upright",27,"Humains_cib060",1,1,331,"Hit"
"28","1","female",21,"right",1,"HFC",1,"Upright",28,"Humains_dis121",0,0,NA,"CorrectRejection"
"29","1","female",21,"right",1,"HFC",1,"Upright",29,"Humains_dis090",0,0,NA,"CorrectRejection"
"30","1","female",21,"right",1,"HFC",1,"Upright",30,"Humains_dis073",0,0,NA,"CorrectRejection"
"31","1","female",21,"right",1,"HFC",1,"Upright",31,"Humains_cib134",1,1,386,"Hit"
"32","1","female",21,"right",1,"HFC",1,"Upright",32,"Humains_dis119",0,0,NA,"CorrectRejection"
"33","1","female",21,"right",1,"HFC",1,"Upright",33,"Humains_cib112",1,1,299,"Hit"
"34","1","female",21,"right",1,"HFC",1,"Upright",34,"Humains_dis122",0,0,NA,"CorrectRejection"
"35","1","female",21,"right",1,"HFC",1,"Upright",35,"Humains_dis087",0,0,NA,"CorrectRejection"
"36","1","female",21,"right",1,"HFC",1,"Upright",36,"Humains_cib129",1,1,320,"Hit"
"37","1","female",21,"right",1,"HFC",1,"Upright",37,"Humains_cib113",1,1,274,"Hit"
"38","1","female",21,"right",1,"HFC",1,"Upright",38,"Humains_dis120",0,0,NA,"CorrectRejection"
"39","1","female",21,"right",1,"HFC",1,"Upright",39,"Humains_cib050",1,1,302,"Hit"
"40","1","female",21,"right",1,"HFC",1,"Upright",40,"Humains_cib136",1,1,371,"Hit"
"41","1","female",21,"right",1,"HFC",1,"Upright",41,"Humains_dis106",0,0,NA,"CorrectRejection"
"42","1","female",21,"right",1,"HFC",1,"Upright",42,"Humains_cib123",1,1,356,"Hit"
"43","1","female",21,"right",1,"HFC",1,"Upright",43,"Humains_dis084",0,0,NA,"CorrectRejection"
"44","1","female",21,"right",1,"HFC",1,"Upright",44,"Humains_dis072",0,0,NA,"CorrectRejection"
"45","1","female",21,"right",1,"HFC",1,"Upright",45,"Humains_dis133",0,0,NA,"CorrectRejection"
"46","1","female",21,"right",1,"HFC",1,"Upright",46,"Humains_cib107",1,1,348,"Hit"
"47","1","female",21,"right",1,"HFC",1,"Upright",47,"Humains_cib126",1,1,284,"Hit"
"48","1","female",21,"right",1,"HFC",1,"Upright",48,"Humains_cib065",1,1,330,"Hit"
"49","1","female",21,"right",1,"HFC",1,"Upright",49,"Humains_dis095",0,0,NA,"CorrectRejection"
"50","1","female",21,"right",1,"HFC",1,"Upright",50,"Humains_cib111",1,1,336,"Hit"
"51","1","female",21,"right",1,"HFC",1,"Upright",51,"Humains_dis127",0,0,NA,"CorrectRejection"
"52","1","female",21,"right",1,"HFC",1,"Upright",52,"Humains_cib037",1,1,256,"Hit"
"53","1","female",21,"right",1,"HFC",1,"Upright",53,"Humains_cib124",1,1,380,"Hit"
"54","1","female",21,"right",1,"HFC",1,"Upright",54,"Humains_cib040",1,1,282,"Hit"
"55","1","female",21,"right",1,"HFC",1,"Upright",55,"Humains_cib069",1,1,316,"Hit"
"56","1","female",21,"right",1,"HFC",1,"Upright",56,"Humains_dis126",0,0,NA,"CorrectRejection"
"57","1","female",21,"right",1,"HFC",1,"Upright",57,"Humains_dis117",0,0,NA,"CorrectRejection"
"58","1","female",21,"right",1,"HFC",1,"Upright",58,"Humains_cib062",1,1,289,"Hit"
"59","1","female",21,"right",1,"HFC",1,"Upright",59,"Humains_cib135",1,1,305,"Hit"
"60","1","female",21,"right",1,"HFC",1,"Upright",60,"Humains_cib057",1,1,295,"Hit"
"61","1","female",21,"right",1,"HFC",1,"Upright",61,"Humains_cib106",1,1,336,"Hit"
"62","1","female",21,"right",1,"HFC",1,"Upright",62,"Humains_cib116",1,1,282,"Hit"
"63","1","female",21,"right",1,"HFC",1,"Upright",63,"Humains_dis088",0,0,NA,"CorrectRejection"
"64","1","female",21,"right",1,"HFC",1,"Upright",64,"Humains_cib064",1,1,357,"Hit"
"65","1","female",21,"right",1,"HFC",1,"Upright",65,"Humains_dis080",0,0,NA,"CorrectRejection"
"66","1","female",21,"right",1,"HFC",1,"Upright",66,"Humains_dis079",0,0,NA,"CorrectRejection"
"67","1","female",21,"right",1,"HFC",1,"Upright",67,"Humains_dis083",0,0,NA,"CorrectRejection"
"68","1","female",21,"right",1,"HFC",1,"Upright",68,"Humains_cib119",1,1,348,"Hit"
"69","1","female",21,"right",1,"HFC",1,"Upright",69,"Humains_dis115",0,0,NA,"CorrectRejection"
"70","1","female",21,"right",1,"HFC",1,"Upright",70,"Humains_dis085",0,0,NA,"CorrectRejection"
"71","1","female",21,"right",1,"HFC",1,"Upright",71,"Humains_cib121",1,1,350,"Hit"
"72","1","female",21,"right",1,"HFC",1,"Upright",72,"Humains_dis092",0,0,NA,"CorrectRejection"
"73","1","female",21,"right",1,"HFC",1,"Upright",73,"Humains_cib043",1,1,332,"Hit"
"74","1","female",21,"right",1,"HFC",1,"Upright",74,"Humains_cib038",1,1,304,"Hit"
"75","1","female",21,"right",1,"HFC",1,"Upright",75,"Humains_cib056",1,1,331,"Hit"
"76","1","female",21,"right",1,"HFC",1,"Upright",76,"Humains_cib049",1,1,326,"Hit"
"77","1","female",21,"right",1,"HFC",1,"Upright",77,"Humains_dis108",0,0,NA,"CorrectRejection"
"78","1","female",21,"right",1,"HFC",1,"Upright",78,"Humains_cib052",1,1,320,"Hit"
"79","1","female",21,"right",1,"HFC",1,"Upright",79,"Humains_cib137",1,1,409,"Hit"
"80","1","female",21,"right",1,"HFC",1,"Upright",80,"Humains_dis114",0,0,NA,"CorrectRejection"
"81","1","female",21,"right",1,"HFC",1,"Upright",81,"Humains_dis118",0,1,284,"FalseAlarm"
"82","1","female",21,"right",1,"HFC",1,"Upright",82,"Humains_cib130",1,1,402,"Hit"
"83","1","female",21,"right",1,"HFC",1,"Upright",83,"Humains_cib042",1,0,NA,"Missed"
"84","1","female",21,"right",1,"HFC",1,"Upright",84,"Humains_cib109",1,1,298,"Hit"
"85","1","female",21,"right",1,"HFC",1,"Upright",85,"Humains_dis139",0,0,NA,"CorrectRejection"
"86","1","female",21,"right",1,"HFC",1,"Upright",86,"Humains_dis096",0,0,NA,"CorrectRejection"
"87","1","female",21,"right",1,"HFC",1,"Upright",87,"Humains_cib114",1,1,408,"Hit"
"88","1","female",21,"right",1,"HFC",1,"Upright",88,"Humains_cib051",1,1,323,"Hit"
"89","1","female",21,"right",1,"HFC",1,"Upright",89,"Humains_dis093",0,0,NA,"CorrectRejection"
"90","1","female",21,"right",1,"HFC",1,"Upright",90,"Humains_cib128",1,1,364,"Hit"
"91","1","female",21,"right",1,"HFC",1,"Upright",91,"Humains_dis102",0,0,NA,"CorrectRejection"
"92","1","female",21,"right",1,"HFC",1,"Upright",92,"Humains_cib068",1,1,353,"Hit"
"93","1","female",21,"right",1,"HFC",1,"Upright",93,"Humains_cib047",1,1,374,"Hit"
"94","1","female",21,"right",1,"HFC",1,"Upright",94,"Humains_dis089",0,0,NA,"CorrectRejection"
"95","1","female",21,"right",1,"HFC",1,"Upright",95,"Humains_dis129",0,0,NA,"CorrectRejection"
"96","1","female",21,"right",1,"HFC",1,"Upright",96,"Humains_dis125",0,0,NA,"CorrectRejection"
"97","1","female",21,"right",1,"HFC",1,"Upright",97,"Humains_cib053",1,1,377,"Hit"
"98","1","female",21,"right",1,"HFC",1,"Upright",98,"Humains_dis098",0,0,NA,"CorrectRejection"
"99","1","female",21,"right",1,"HFC",1,"Upright",99,"Humains_dis075",0,0,NA,"CorrectRejection"
"100","1","female",21,"right",1,"HFC",1,"Upright",100,"Humains_dis124",0,0,NA,"CorrectRejection"
"101","1","female",21,"right",1,"HFC",1,"Upright",101,"Humains_dis097",0,0,NA,"CorrectRejection"
"102","1","female",21,"right",1,"HFC",1,"Upright",102,"Humains_cib063",1,1,331,"Hit"
"103","1","female",21,"right",1,"HFC",1,"Upright",103,"Humains_dis140",0,0,NA,"CorrectRejection"
"104","1","female",21,"right",1,"HFC",1,"Upright",104,"Humains_dis109",0,0,NA,"CorrectRejection"
"105","1","female",21,"right",1,"HFC",1,"Upright",105,"Humains_dis076",0,0,NA,"CorrectRejection"
"106","1","female",21,"right",1,"HFC",1,"Upright",106,"Humains_cib132",1,1,480,"Hit"
"107","1","female",21,"right",1,"HFC",1,"Upright",107,"Humains_cib139",1,1,307,"Hit"
"108","1","female",21,"right",1,"HFC",1,"Upright",108,"Humains_dis094",0,0,NA,"CorrectRejection"
"109","1","female",21,"right",1,"HFC",1,"Upright",109,"Humains_dis099",0,0,NA,"CorrectRejection"
"110","1","female",21,"right",1,"HFC",1,"Upright",110,"Humains_cib061",1,1,321,"Hit"
"111","1","female",21,"right",1,"HFC",1,"Upright",111,"Humains_dis081",0,0,NA,"CorrectRejection"
"112","1","female",21,"right",1,"HFC",1,"Upright",112,"Humains_cib125",1,1,353,"Hit"
"113","1","female",21,"right",1,"HFC",1,"Upright",113,"Humains_cib122",1,1,338,"Hit"
"114","1","female",21,"right",1,"HFC",1,"Upright",114,"Humains_dis131",0,0,NA,"CorrectRejection"
"115","1","female",21,"right",1,"HFC",1,"Upright",115,"Humains_dis130",0,0,NA,"CorrectRejection"
"116","1","female",21,"right",1,"HFC",1,"Upright",116,"Humains_cib048",1,1,318,"Hit"
"117","1","female",21,"right",1,"HFC",1,"Upright",117,"Humains_cib054",1,1,323,"Hit"
"118","1","female",21,"right",1,"HFC",1,"Upright",118,"Humains_dis071",0,0,NA,"CorrectRejection"
"119","1","female",21,"right",1,"HFC",1,"Upright",119,"Humains_dis078",0,0,NA,"CorrectRejection"
"120","1","female",21,"right",1,"HFC",1,"Upright",120,"Humains_dis104",0,0,NA,"CorrectRejection"
"121","1","female",21,"right",1,"HFC",1,"Upright",121,"Humains_cib059",1,1,336,"Hit"
"122","1","female",21,"right",1,"HFC",1,"Upright",122,"Humains_dis116",0,0,NA,"CorrectRejection"
"123","1","female",21,"right",1,"HFC",1,"Upright",123,"Humains_dis086",0,0,NA,"CorrectRejection"
"124","1","female",21,"right",1,"HFC",1,"Upright",124,"Humains_dis134",0,0,NA,"CorrectRejection"
"125","1","female",21,"right",1,"HFC",1,"Upright",125,"Humains_cib115",1,1,333,"Hit"
"126","1","female",21,"right",1,"HFC",1,"Upright",126,"Humains_cib067",1,1,335,"Hit"
"127","1","female",21,"right",1,"HFC",1,"Upright",127,"Humains_dis111",0,0,NA,"CorrectRejection"
"128","1","female",21,"right",1,"HFC",1,"Upright",128,"Humains_cib108",1,1,342,"Hit"
"129","1","female",21,"right",1,"HFC",1,"Upright",129,"Humains_cib133",1,1,351,"Hit"
"130","1","female",21,"right",1,"HFC",1,"Upright",130,"Humains_cib131",1,1,326,"Hit"
"131","1","female",21,"right",1,"HFC",1,"Upright",131,"Humains_cib140",1,1,276,"Hit"
"132","1","female",21,"right",1,"HFC",1,"Upright",132,"Humains_dis074",0,0,NA,"CorrectRejection"
"133","1","female",21,"right",1,"HFC",1,"Upright",133,"Humains_dis101",0,0,NA,"CorrectRejection"
"134","1","female",21,"right",1,"HFC",1,"Upright",134,"Humains_dis132",0,0,NA,"CorrectRejection"
"135","1","female",21,"right",1,"HFC",1,"Upright",135,"Humains_cib045",1,1,347,"Hit"
"136","1","female",21,"right",1,"HFC",1,"Upright",136,"Humains_cib110",1,1,371,"Hit"
"137","1","female",21,"right",1,"HFC",1,"Upright",137,"Humains_dis105",0,0,NA,"CorrectRejection"
"138","1","female",21,"right",1,"HFC",1,"Upright",138,"Humains_dis100",0,0,NA,"CorrectRejection"
"139","1","female",21,"right",1,"HFC",1,"Upright",139,"Humains_dis082",0,0,NA,"CorrectRejection"
"140","1","female",21,"right",1,"HFC",1,"Upright",140,"Humains_dis110",0,0,NA,"CorrectRejection"
"141","1","female",21,"right",1,"HFC",2,"Inverted",1,"Humains_dis036",0,0,NA,"CorrectRejection"
"142","1","female",21,"right",1,"HFC",2,"Inverted",2,"Humains_dis017",0,0,NA,"CorrectRejection"
"143","1","female",21,"right",1,"HFC",2,"Inverted",3,"Humains_cib090",1,1,369,"Hit"
"144","1","female",21,"right",1,"HFC",2,"Inverted",4,"Humains_cib014",1,1,309,"Hit"
"145","1","female",21,"right",1,"HFC",2,"Inverted",5,"Humains_dis057",0,1,314,"FalseAlarm"
"146","1","female",21,"right",1,"HFC",2,"Inverted",6,"Humains_dis014",0,0,NA,"CorrectRejection"
"147","1","female",21,"right",1,"HFC",2,"Inverted",7,"Humains_dis029",0,0,NA,"CorrectRejection"
"148","1","female",21,"right",1,"HFC",2,"Inverted",8,"Humains_dis019",0,0,NA,"CorrectRejection"
"149","1","female",21,"right",1,"HFC",2,"Inverted",9,"Humains_cib077",1,1,387,"Hit"
"150","1","female",21,"right",1,"HFC",2,"Inverted",10,"Humains_cib084",1,1,274,"Hit"
"151","1","female",21,"right",1,"HFC",2,"Inverted",11,"Humains_cib030",1,1,349,"Hit"
"152","1","female",21,"right",1,"HFC",2,"Inverted",12,"Humains_dis056",0,0,NA,"CorrectRejection"
"153","1","female",21,"right",1,"HFC",2,"Inverted",13,"Humains_cib086",1,1,322,"Hit"
"154","1","female",21,"right",1,"HFC",2,"Inverted",14,"Humains_dis068",0,0,NA,"CorrectRejection"
"155","1","female",21,"right",1,"HFC",2,"Inverted",15,"Humains_cib012",1,1,334,"Hit"
"156","1","female",21,"right",1,"HFC",2,"Inverted",16,"Humains_cib003",1,1,305,"Hit"
"157","1","female",21,"right",1,"HFC",2,"Inverted",17,"Humains_cib026",1,1,334,"Hit"
"158","1","female",21,"right",1,"HFC",2,"Inverted",18,"Humains_cib035",1,1,274,"Hit"
"159","1","female",21,"right",1,"HFC",2,"Inverted",19,"Humains_dis025",0,0,NA,"CorrectRejection"
"160","1","female",21,"right",1,"HFC",2,"Inverted",20,"Humains_cib092",1,1,370,"Hit"
"161","1","female",21,"right",1,"HFC",2,"Inverted",21,"Humains_dis055",0,0,NA,"CorrectRejection"
"162","1","female",21,"right",1,"HFC",2,"Inverted",22,"Humains_cib078",1,1,293,"Hit"
"163","1","female",21,"right",1,"HFC",2,"Inverted",23,"Humains_dis011",0,0,NA,"CorrectRejection"
"164","1","female",21,"right",1,"HFC",2,"Inverted",24,"Humains_dis045",0,0,NA,"CorrectRejection"
"165","1","female",21,"right",1,"HFC",2,"Inverted",25,"Humains_dis033",0,0,NA,"CorrectRejection"
"166","1","female",21,"right",1,"HFC",2,"Inverted",26,"Humains_cib031",1,1,395,"Hit"
"167","1","female",21,"right",1,"HFC",2,"Inverted",27,"Humains_dis002",0,0,NA,"CorrectRejection"
"168","1","female",21,"right",1,"HFC",2,"Inverted",28,"Humains_dis067",0,0,NA,"CorrectRejection"
"169","1","female",21,"right",1,"HFC",2,"Inverted",29,"Humains_cib088",1,1,374,"Hit"
"170","1","female",21,"right",1,"HFC",2,"Inverted",30,"Humains_dis020",0,0,NA,"CorrectRejection"
"171","1","female",21,"right",1,"HFC",2,"Inverted",31,"Humains_dis046",0,0,NA,"CorrectRejection"
"172","1","female",21,"right",1,"HFC",2,"Inverted",32,"Humains_cib028",1,1,370,"Hit"
"173","1","female",21,"right",1,"HFC",2,"Inverted",33,"Humains_dis049",0,0,NA,"CorrectRejection"
"174","1","female",21,"right",1,"HFC",2,"Inverted",34,"Humains_dis013",0,0,NA,"CorrectRejection"
"175","1","female",21,"right",1,"HFC",2,"Inverted",35,"Humains_cib080",1,1,599,"Hit"
"176","1","female",21,"right",1,"HFC",2,"Inverted",36,"Humains_dis022",0,0,NA,"CorrectRejection"
"177","1","female",21,"right",1,"HFC",2,"Inverted",37,"Humains_dis032",0,0,NA,"CorrectRejection"
"178","1","female",21,"right",1,"HFC",2,"Inverted",38,"Humains_cib100",1,1,399,"Hit"
"179","1","female",21,"right",1,"HFC",2,"Inverted",39,"Humains_cib074",1,1,319,"Hit"
"180","1","female",21,"right",1,"HFC",2,"Inverted",40,"Humains_dis030",0,0,NA,"CorrectRejection"
"181","1","female",21,"right",1,"HFC",2,"Inverted",41,"Humains_cib019",1,1,325,"Hit"
"182","1","female",21,"right",1,"HFC",2,"Inverted",42,"Humains_dis015",0,0,NA,"CorrectRejection"
"183","1","female",21,"right",1,"HFC",2,"Inverted",43,"Humains_cib005",1,1,358,"Hit"
"184","1","female",21,"right",1,"HFC",2,"Inverted",44,"Humains_dis023",0,0,NA,"CorrectRejection"
"185","1","female",21,"right",1,"HFC",2,"Inverted",45,"Humains_dis027",0,0,NA,"CorrectRejection"
"186","1","female",21,"right",1,"HFC",2,"Inverted",46,"Humains_cib091",1,1,329,"Hit"
"187","1","female",21,"right",1,"HFC",2,"Inverted",47,"Humains_dis053",0,0,NA,"CorrectRejection"
"188","1","female",21,"right",1,"HFC",2,"Inverted",48,"Humains_dis037",0,0,NA,"CorrectRejection"
"189","1","female",21,"right",1,"HFC",2,"Inverted",49,"Humains_dis028",0,0,NA,"CorrectRejection"
"190","1","female",21,"right",1,"HFC",2,"Inverted",50,"Humains_dis044",0,0,NA,"CorrectRejection"
"191","1","female",21,"right",1,"HFC",2,"Inverted",51,"Humains_dis034",0,0,NA,"CorrectRejection"
"192","1","female",21,"right",1,"HFC",2,"Inverted",52,"Humains_cib025",1,1,432,"Hit"
"193","1","female",21,"right",1,"HFC",2,"Inverted",53,"Humains_cib075",1,1,417,"Hit"
"194","1","female",21,"right",1,"HFC",2,"Inverted",54,"Humains_dis043",0,0,NA,"CorrectRejection"
"195","1","female",21,"right",1,"HFC",2,"Inverted",55,"Humains_cib009",1,0,NA,"Missed"
"196","1","female",21,"right",1,"HFC",2,"Inverted",56,"Humains_cib008",1,1,403,"Hit"
"197","1","female",21,"right",1,"HFC",2,"Inverted",57,"Humains_dis041",0,0,NA,"CorrectRejection"
"198","1","female",21,"right",1,"HFC",2,"Inverted",58,"Humains_dis026",0,0,NA,"CorrectRejection"
"199","1","female",21,"right",1,"HFC",2,"Inverted",59,"Humains_cib104",1,1,306,"Hit"
"200","1","female",21,"right",1,"HFC",2,"Inverted",60,"Humains_cib079",1,1,381,"Hit"
"201","1","female",21,"right",1,"HFC",2,"Inverted",61,"Humains_dis042",0,0,NA,"CorrectRejection"
"202","1","female",21,"right",1,"HFC",2,"Inverted",62,"Humains_cib085",1,1,321,"Hit"
"203","1","female",21,"right",1,"HFC",2,"Inverted",63,"Humains_cib004",1,1,307,"Hit"
"204","1","female",21,"right",1,"HFC",2,"Inverted",64,"Humains_dis051",0,0,NA,"CorrectRejection"
"205","1","female",21,"right",1,"HFC",2,"Inverted",65,"Humains_cib101",1,1,349,"Hit"
"206","1","female",21,"right",1,"HFC",2,"Inverted",66,"Humains_dis038",0,0,NA,"CorrectRejection"
"207","1","female",21,"right",1,"HFC",2,"Inverted",67,"Humains_dis040",0,0,NA,"CorrectRejection"
"208","1","female",21,"right",1,"HFC",2,"Inverted",68,"Humains_dis003",0,0,NA,"CorrectRejection"
"209","1","female",21,"right",1,"HFC",2,"Inverted",69,"Humains_dis006",0,0,NA,"CorrectRejection"
"210","1","female",21,"right",1,"HFC",2,"Inverted",70,"Humains_cib089",1,1,413,"Hit"
"211","1","female",21,"right",1,"HFC",2,"Inverted",71,"Humains_cib032",1,1,301,"Hit"
"212","1","female",21,"right",1,"HFC",2,"Inverted",72,"Humains_cib021",1,1,360,"Hit"
"213","1","female",21,"right",1,"HFC",2,"Inverted",73,"Humains_cib027",1,1,410,"Hit"
"214","1","female",21,"right",1,"HFC",2,"Inverted",74,"Humains_cib082",1,1,307,"Hit"
"215","1","female",21,"right",1,"HFC",2,"Inverted",75,"Humains_dis065",0,0,NA,"CorrectRejection"
"216","1","female",21,"right",1,"HFC",2,"Inverted",76,"Humains_cib022",1,1,339,"Hit"
"217","1","female",21,"right",1,"HFC",2,"Inverted",77,"Humains_cib083",1,1,349,"Hit"
"218","1","female",21,"right",1,"HFC",2,"Inverted",78,"Humains_cib102",1,1,312,"Hit"
"219","1","female",21,"right",1,"HFC",2,"Inverted",79,"Humains_dis007",0,0,NA,"CorrectRejection"
"220","1","female",21,"right",1,"HFC",2,"Inverted",80,"Humains_cib099",1,1,317,"Hit"
"221","1","female",21,"right",1,"HFC",2,"Inverted",81,"Humains_cib001",1,1,347,"Hit"
"222","1","female",21,"right",1,"HFC",2,"Inverted",82,"Humains_dis008",0,0,NA,"CorrectRejection"
"223","1","female",21,"right",1,"HFC",2,"Inverted",83,"Humains_dis016",0,0,NA,"CorrectRejection"
"224","1","female",21,"right",1,"HFC",2,"Inverted",84,"Humains_dis031",0,0,NA,"CorrectRejection"
"225","1","female",21,"right",1,"HFC",2,"Inverted",85,"Humains_dis005",0,0,NA,"CorrectRejection"
"226","1","female",21,"right",1,"HFC",2,"Inverted",86,"Humains_cib011",1,1,376,"Hit"
"227","1","female",21,"right",1,"HFC",2,"Inverted",87,"Humains_cib095",1,1,513,"Hit"
"228","1","female",21,"right",1,"HFC",2,"Inverted",88,"Humains_cib097",1,1,310,"Hit"
"229","1","female",21,"right",1,"HFC",2,"Inverted",89,"Humains_cib105",1,1,346,"Hit"
"230","1","female",21,"right",1,"HFC",2,"Inverted",90,"Humains_cib034",1,1,327,"Hit"
"231","1","female",21,"right",1,"HFC",2,"Inverted",91,"Humains_dis059",0,0,NA,"CorrectRejection"
"232","1","female",21,"right",1,"HFC",2,"Inverted",92,"Humains_cib073",1,1,474,"Hit"
"233","1","female",21,"right",1,"HFC",2,"Inverted",93,"Humains_cib006",1,1,343,"Hit"
"234","1","female",21,"right",1,"HFC",2,"Inverted",94,"Humains_cib072",1,1,320,"Hit"
"235","1","female",21,"right",1,"HFC",2,"Inverted",95,"Humains_dis061",0,0,NA,"CorrectRejection"
"236","1","female",21,"right",1,"HFC",2,"Inverted",96,"Humains_cib029",1,1,340,"Hit"
"237","1","female",21,"right",1,"HFC",2,"Inverted",97,"Humains_dis058",0,0,NA,"CorrectRejection"
"238","1","female",21,"right",1,"HFC",2,"Inverted",98,"Humains_dis018",0,0,NA,"CorrectRejection"
"239","1","female",21,"right",1,"HFC",2,"Inverted",99,"Humains_cib093",1,1,354,"Hit"
"240","1","female",21,"right",1,"HFC",2,"Inverted",100,"Humains_cib020",1,1,319,"Hit"
"241","1","female",21,"right",1,"HFC",2,"Inverted",101,"Humains_cib016",1,1,303,"Hit"
"242","1","female",21,"right",1,"HFC",2,"Inverted",102,"Humains_cib103",1,1,296,"Hit"
"243","1","female",21,"right",1,"HFC",2,"Inverted",103,"Humains_dis004",0,0,NA,"CorrectRejection"
"244","1","female",21,"right",1,"HFC",2,"Inverted",104,"Humains_dis052",0,0,NA,"CorrectRejection"
"245","1","female",21,"right",1,"HFC",2,"Inverted",105,"Humains_cib018",1,1,370,"Hit"
"246","1","female",21,"right",1,"HFC",2,"Inverted",106,"Humains_dis009",0,0,NA,"CorrectRejection"
"247","1","female",21,"right",1,"HFC",2,"Inverted",107,"Humains_cib007",1,1,382,"Hit"
"248","1","female",21,"right",1,"HFC",2,"Inverted",108,"Humains_dis050",0,0,NA,"CorrectRejection"
"249","1","female",21,"right",1,"HFC",2,"Inverted",109,"Humains_dis012",0,0,NA,"CorrectRejection"
"250","1","female",21,"right",1,"HFC",2,"Inverted",110,"Humains_dis047",0,0,NA,"CorrectRejection"
"251","1","female",21,"right",1,"HFC",2,"Inverted",111,"Humains_dis064",0,0,NA,"CorrectRejection"
"252","1","female",21,"right",1,"HFC",2,"Inverted",112,"Humains_cib013",1,1,325,"Hit"
"253","1","female",21,"right",1,"HFC",2,"Inverted",113,"Humains_dis021",0,0,NA,"CorrectRejection"
"254","1","female",21,"right",1,"HFC",2,"Inverted",114,"Humains_cib010",1,1,320,"Hit"
"255","1","female",21,"right",1,"HFC",2,"Inverted",115,"Humains_dis060",0,0,NA,"CorrectRejection"
"256","1","female",21,"right",1,"HFC",2,"Inverted",116,"Humains_dis010",0,0,NA,"CorrectRejection"
"257","1","female",21,"right",1,"HFC",2,"Inverted",117,"Humains_cib015",1,1,392,"Hit"
"258","1","female",21,"right",1,"HFC",2,"Inverted",118,"Humains_cib096",1,1,417,"Hit"
"259","1","female",21,"right",1,"HFC",2,"Inverted",119,"Humains_cib081",1,1,318,"Hit"
"260","1","female",21,"right",1,"HFC",2,"Inverted",120,"Humains_dis001",0,0,NA,"CorrectRejection"
"261","1","female",21,"right",1,"HFC",2,"Inverted",121,"Humains_dis069",0,0,NA,"CorrectRejection"
"262","1","female",21,"right",1,"HFC",2,"Inverted",122,"Humains_cib071",1,1,363,"Hit"
"263","1","female",21,"right",1,"HFC",2,"Inverted",123,"Humains_cib023",1,1,294,"Hit"
"264","1","female",21,"right",1,"HFC",2,"Inverted",124,"Humains_cib076",1,1,274,"Hit"
"265","1","female",21,"right",1,"HFC",2,"Inverted",125,"Humains_cib024",1,1,314,"Hit"
"266","1","female",21,"right",1,"HFC",2,"Inverted",126,"Humains_dis062",0,0,NA,"CorrectRejection"
"267","1","female",21,"right",1,"HFC",2,"Inverted",127,"Humains_cib087",1,1,412,"Hit"
"268","1","female",21,"right",1,"HFC",2,"Inverted",128,"Humains_cib033",1,1,286,"Hit"
"269","1","female",21,"right",1,"HFC",2,"Inverted",129,"Humains_dis024",0,0,NA,"CorrectRejection"
"270","1","female",21,"right",1,"HFC",2,"Inverted",130,"Humains_cib098",1,1,321,"Hit"
"271","1","female",21,"right",1,"HFC",2,"Inverted",131,"Humains_dis070",0,0,NA,"CorrectRejection"
"272","1","female",21,"right",1,"HFC",2,"Inverted",132,"Humains_cib094",1,1,316,"Hit"
"273","1","female",21,"right",1,"HFC",2,"Inverted",133,"Humains_cib017",1,1,396,"Hit"
"274","1","female",21,"right",1,"HFC",2,"Inverted",134,"Humains_dis063",0,0,NA,"CorrectRejection"
"275","1","female",21,"right",1,"HFC",2,"Inverted",135,"Humains_dis039",0,0,NA,"CorrectRejection"
"276","1","female",21,"right",1,"HFC",2,"Inverted",136,"Humains_dis035",0,0,NA,"CorrectRejection"
"277","1","female",21,"right",1,"HFC",2,"Inverted",137,"Humains_cib002",1,1,362,"Hit"
"278","1","female",21,"right",1,"HFC",2,"Inverted",138,"Humains_dis054",0,0,NA,"CorrectRejection"
"279","1","female",21,"right",1,"HFC",2,"Inverted",139,"Humains_dis066",0,0,NA,"CorrectRejection"
"280","1","female",21,"right",1,"HFC",2,"Inverted",140,"Humains_dis048",0,0,NA,"CorrectRejection"
"281","1","female",21,"right",2,"IFR",1,"Inverted",1,"Sarkozy_dis05",0,0,NA,"CorrectRejection"
"282","1","female",21,"right",2,"IFR",1,"Inverted",2,"Sarkozy_cib60",1,1,526,"Hit"
"283","1","female",21,"right",2,"IFR",1,"Inverted",3,"Sarkozy_dis55",0,0,NA,"CorrectRejection"
"284","1","female",21,"right",2,"IFR",1,"Inverted",4,"Sarkozy_dis18",0,0,NA,"CorrectRejection"
"285","1","female",21,"right",2,"IFR",1,"Inverted",5,"Sarkozy_dis11",0,1,449,"FalseAlarm"
"286","1","female",21,"right",2,"IFR",1,"Inverted",6,"Sarkozy_dis60",0,0,NA,"CorrectRejection"
"287","1","female",21,"right",2,"IFR",1,"Inverted",7,"Sarkozy_dis40",0,0,NA,"CorrectRejection"
"288","1","female",21,"right",2,"IFR",1,"Inverted",8,"Sarkozy_dis10",0,0,NA,"CorrectRejection"
"289","1","female",21,"right",2,"IFR",1,"Inverted",9,"Sarkozy_cib19",1,1,470,"Hit"
"290","1","female",21,"right",2,"IFR",1,"Inverted",10,"Sarkozy_dis08",0,0,NA,"CorrectRejection"
"291","1","female",21,"right",2,"IFR",1,"Inverted",11,"Sarkozy_dis37",0,1,428,"FalseAlarm"
"292","1","female",21,"right",2,"IFR",1,"Inverted",12,"Sarkozy_dis63",0,0,NA,"CorrectRejection"
"293","1","female",21,"right",2,"IFR",1,"Inverted",13,"Sarkozy_dis38",0,0,NA,"CorrectRejection"
"294","1","female",21,"right",2,"IFR",1,"Inverted",14,"Sarkozy_dis28",0,1,435,"FalseAlarm"
"295","1","female",21,"right",2,"IFR",1,"Inverted",15,"Sarkozy_dis35",0,0,NA,"CorrectRejection"
"296","1","female",21,"right",2,"IFR",1,"Inverted",16,"Sarkozy_cib22",1,1,366,"Hit"
"297","1","female",21,"right",2,"IFR",1,"Inverted",17,"Sarkozy_dis17",0,0,NA,"CorrectRejection"
"298","1","female",21,"right",2,"IFR",1,"Inverted",18,"Sarkozy_cib64",1,0,NA,"Missed"
"299","1","female",21,"right",2,"IFR",1,"Inverted",19,"Sarkozy_cib36",1,1,425,"Hit"
"300","1","female",21,"right",2,"IFR",1,"Inverted",20,"Sarkozy_cib33",1,1,423,"Hit"
"301","1","female",21,"right",2,"IFR",1,"Inverted",21,"Sarkozy_cib48",1,1,381,"Hit"
"302","1","female",21,"right",2,"IFR",1,"Inverted",22,"Sarkozy_cib43",1,1,367,"Hit"
"303","1","female",21,"right",2,"IFR",1,"Inverted",23,"Sarkozy_dis20",0,0,NA,"CorrectRejection"
"304","1","female",21,"right",2,"IFR",1,"Inverted",24,"Sarkozy_cib04",1,0,NA,"Missed"
"305","1","female",21,"right",2,"IFR",1,"Inverted",25,"Sarkozy_cib26",1,1,360,"Hit"
"306","1","female",21,"right",2,"IFR",1,"Inverted",26,"Sarkozy_dis13",0,1,374,"FalseAlarm"
"307","1","female",21,"right",2,"IFR",1,"Inverted",27,"Sarkozy_dis65",0,0,NA,"CorrectRejection"
"308","1","female",21,"right",2,"IFR",1,"Inverted",28,"Sarkozy_dis04",0,0,NA,"CorrectRejection"
"309","1","female",21,"right",2,"IFR",1,"Inverted",29,"Sarkozy_dis25",0,0,NA,"CorrectRejection"
"310","1","female",21,"right",2,"IFR",1,"Inverted",30,"Sarkozy_cib51",1,1,404,"Hit"
"311","1","female",21,"right",2,"IFR",1,"Inverted",31,"Sarkozy_dis06",0,1,365,"FalseAlarm"
"312","1","female",21,"right",2,"IFR",1,"Inverted",32,"Sarkozy_cib06",1,1,360,"Hit"
"313","1","female",21,"right",2,"IFR",1,"Inverted",33,"Sarkozy_cib49",1,1,359,"Hit"
"314","1","female",21,"right",2,"IFR",1,"Inverted",34,"Sarkozy_cib41",1,1,362,"Hit"
"315","1","female",21,"right",2,"IFR",1,"Inverted",35,"Sarkozy_dis31",0,0,NA,"CorrectRejection"
"316","1","female",21,"right",2,"IFR",1,"Inverted",36,"Sarkozy_cib01",1,1,372,"Hit"
"317","1","female",21,"right",2,"IFR",1,"Inverted",37,"Sarkozy_dis52",0,0,NA,"CorrectRejection"
"318","1","female",21,"right",2,"IFR",1,"Inverted",38,"Sarkozy_cib30",1,1,426,"Hit"
"319","1","female",21,"right",2,"IFR",1,"Inverted",39,"Sarkozy_cib62",1,0,NA,"Missed"
"320","1","female",21,"right",2,"IFR",1,"Inverted",40,"Sarkozy_cib40",1,1,364,"Hit"
"321","1","female",21,"right",2,"IFR",1,"Inverted",41,"Sarkozy_cib15",1,1,392,"Hit"
"322","1","female",21,"right",2,"IFR",1,"Inverted",42,"Sarkozy_dis34",0,0,NA,"CorrectRejection"
"323","1","female",21,"right",2,"IFR",1,"Inverted",43,"Sarkozy_dis66",0,0,NA,"CorrectRejection"
"324","1","female",21,"right",2,"IFR",1,"Inverted",44,"Sarkozy_dis09",0,0,NA,"CorrectRejection"
"325","1","female",21,"right",2,"IFR",1,"Inverted",45,"Sarkozy_dis02",0,0,NA,"CorrectRejection"
"326","1","female",21,"right",2,"IFR",1,"Inverted",46,"Sarkozy_cib24",1,1,402,"Hit"
"327","1","female",21,"right",2,"IFR",1,"Inverted",47,"Sarkozy_cib46",1,1,360,"Hit"
"328","1","female",21,"right",2,"IFR",1,"Inverted",48,"Sarkozy_cib25",1,1,385,"Hit"
"329","1","female",21,"right",2,"IFR",1,"Inverted",49,"Sarkozy_cib05",1,1,518,"Hit"
"330","1","female",21,"right",2,"IFR",1,"Inverted",50,"Sarkozy_dis44",0,0,NA,"CorrectRejection"
"331","1","female",21,"right",2,"IFR",1,"Inverted",51,"Sarkozy_cib34",1,1,366,"Hit"
"332","1","female",21,"right",2,"IFR",1,"Inverted",52,"Sarkozy_dis29",0,0,NA,"CorrectRejection"
"333","1","female",21,"right",2,"IFR",1,"Inverted",53,"Sarkozy_cib52",1,1,392,"Hit"
"334","1","female",21,"right",2,"IFR",1,"Inverted",54,"Sarkozy_cib35",1,1,398,"Hit"
"335","1","female",21,"right",2,"IFR",1,"Inverted",55,"Sarkozy_cib23",1,1,465,"Hit"
"336","1","female",21,"right",2,"IFR",1,"Inverted",56,"Sarkozy_dis69",0,0,NA,"CorrectRejection"
"337","1","female",21,"right",2,"IFR",1,"Inverted",57,"Sarkozy_dis59",0,0,NA,"CorrectRejection"
"338","1","female",21,"right",2,"IFR",1,"Inverted",58,"Sarkozy_cib42",1,1,351,"Hit"
"339","1","female",21,"right",2,"IFR",1,"Inverted",59,"Sarkozy_cib11",1,1,374,"Hit"
"340","1","female",21,"right",2,"IFR",1,"Inverted",60,"Sarkozy_dis22",0,0,NA,"CorrectRejection"
"341","1","female",21,"right",2,"IFR",1,"Inverted",61,"Sarkozy_dis50",0,0,NA,"CorrectRejection"
"342","1","female",21,"right",2,"IFR",1,"Inverted",62,"Sarkozy_dis27",0,0,NA,"CorrectRejection"
"343","1","female",21,"right",2,"IFR",1,"Inverted",63,"Sarkozy_dis45",0,0,NA,"CorrectRejection"
"344","1","female",21,"right",2,"IFR",1,"Inverted",64,"Sarkozy_dis21",0,0,NA,"CorrectRejection"
"345","1","female",21,"right",2,"IFR",1,"Inverted",65,"Sarkozy_dis56",0,0,NA,"CorrectRejection"
"346","1","female",21,"right",2,"IFR",1,"Inverted",66,"Sarkozy_dis30",0,0,NA,"CorrectRejection"
"347","1","female",21,"right",2,"IFR",1,"Inverted",67,"Sarkozy_cib45",1,1,422,"Hit"
"348","1","female",21,"right",2,"IFR",1,"Inverted",68,"Sarkozy_cib13",1,1,456,"Hit"
"349","1","female",21,"right",2,"IFR",1,"Inverted",69,"Sarkozy_cib28",1,1,404,"Hit"
"350","1","female",21,"right",2,"IFR",1,"Inverted",70,"Sarkozy_dis33",0,0,NA,"CorrectRejection"
"351","1","female",21,"right",2,"IFR",1,"Inverted",71,"Sarkozy_dis19",0,0,NA,"CorrectRejection"
"352","1","female",21,"right",2,"IFR",1,"Inverted",72,"Sarkozy_dis58",0,0,NA,"CorrectRejection"
"353","1","female",21,"right",2,"IFR",1,"Inverted",73,"Sarkozy_dis51",0,0,NA,"CorrectRejection"
"354","1","female",21,"right",2,"IFR",1,"Inverted",74,"Sarkozy_cib27",1,0,NA,"Missed"
"355","1","female",21,"right",2,"IFR",1,"Inverted",75,"Sarkozy_dis23",0,0,NA,"CorrectRejection"
"356","1","female",21,"right",2,"IFR",1,"Inverted",76,"Sarkozy_cib20",1,1,357,"Hit"
"357","1","female",21,"right",2,"IFR",1,"Inverted",77,"Sarkozy_cib32",1,0,NA,"Missed"
"358","1","female",21,"right",2,"IFR",1,"Inverted",78,"Sarkozy_dis68",0,0,NA,"CorrectRejection"
"359","1","female",21,"right",2,"IFR",1,"Inverted",79,"Sarkozy_dis32",0,0,NA,"CorrectRejection"
"360","1","female",21,"right",2,"IFR",1,"Inverted",80,"Sarkozy_dis12",0,0,NA,"CorrectRejection"
"361","1","female",21,"right",2,"IFR",1,"Inverted",81,"Sarkozy_cib53",1,1,477,"Hit"
"362","1","female",21,"right",2,"IFR",1,"Inverted",82,"Sarkozy_cib18",1,1,402,"Hit"
"363","1","female",21,"right",2,"IFR",1,"Inverted",83,"Sarkozy_cib10",1,1,383,"Hit"
"364","1","female",21,"right",2,"IFR",1,"Inverted",84,"Sarkozy_cib69",1,0,NA,"Missed"
"365","1","female",21,"right",2,"IFR",1,"Inverted",85,"Sarkozy_cib31",1,1,453,"Hit"
"366","1","female",21,"right",2,"IFR",1,"Inverted",86,"Sarkozy_cib39",1,1,315,"Hit"
"367","1","female",21,"right",2,"IFR",1,"Inverted",87,"Sarkozy_cib07",1,1,387,"Hit"
"368","1","female",21,"right",2,"IFR",1,"Inverted",88,"Sarkozy_dis53",0,0,NA,"CorrectRejection"
"369","1","female",21,"right",2,"IFR",1,"Inverted",89,"Sarkozy_dis01",0,0,NA,"CorrectRejection"
"370","1","female",21,"right",2,"IFR",1,"Inverted",90,"Sarkozy_cib70",1,1,424,"Hit"
"371","1","female",21,"right",2,"IFR",1,"Inverted",91,"Sarkozy_cib21",1,1,390,"Hit"
"372","1","female",21,"right",2,"IFR",1,"Inverted",92,"Sarkozy_cib59",1,1,340,"Hit"
"373","1","female",21,"right",2,"IFR",1,"Inverted",93,"Sarkozy_cib68",1,1,305,"Hit"
"374","1","female",21,"right",2,"IFR",1,"Inverted",94,"Sarkozy_cib66",1,0,NA,"Missed"
"375","1","female",21,"right",2,"IFR",1,"Inverted",95,"Sarkozy_dis07",0,0,NA,"CorrectRejection"
"376","1","female",21,"right",2,"IFR",1,"Inverted",96,"Sarkozy_cib09",1,1,348,"Hit"
"377","1","female",21,"right",2,"IFR",1,"Inverted",97,"Sarkozy_dis47",0,1,484,"FalseAlarm"
"378","1","female",21,"right",2,"IFR",1,"Inverted",98,"Sarkozy_cib50",1,1,447,"Hit"
"379","1","female",21,"right",2,"IFR",1,"Inverted",99,"Sarkozy_dis43",0,0,NA,"CorrectRejection"
"380","1","female",21,"right",2,"IFR",1,"Inverted",100,"Sarkozy_cib47",1,1,375,"Hit"
"381","1","female",21,"right",2,"IFR",1,"Inverted",101,"Sarkozy_dis42",0,0,NA,"CorrectRejection"
"382","1","female",21,"right",2,"IFR",1,"Inverted",102,"Sarkozy_cib55",1,0,NA,"Missed"
"383","1","female",21,"right",2,"IFR",1,"Inverted",103,"Sarkozy_dis54",0,0,NA,"CorrectRejection"
"384","1","female",21,"right",2,"IFR",1,"Inverted",104,"Sarkozy_dis15",0,0,NA,"CorrectRejection"
"385","1","female",21,"right",2,"IFR",1,"Inverted",105,"Sarkozy_cib54",1,1,516,"Hit"
"386","1","female",21,"right",2,"IFR",1,"Inverted",106,"Sarkozy_dis14",0,1,429,"FalseAlarm"
"387","1","female",21,"right",2,"IFR",1,"Inverted",107,"Sarkozy_dis48",0,0,NA,"CorrectRejection"
"388","1","female",21,"right",2,"IFR",1,"Inverted",108,"Sarkozy_cib14",1,1,386,"Hit"
"389","1","female",21,"right",2,"IFR",1,"Inverted",109,"Sarkozy_dis46",0,0,NA,"CorrectRejection"
"390","1","female",21,"right",2,"IFR",1,"Inverted",110,"Sarkozy_cib63",1,1,364,"Hit"
"391","1","female",21,"right",2,"IFR",1,"Inverted",111,"Sarkozy_dis70",0,0,NA,"CorrectRejection"
"392","1","female",21,"right",2,"IFR",1,"Inverted",112,"Sarkozy_cib02",1,1,512,"Hit"
"393","1","female",21,"right",2,"IFR",1,"Inverted",113,"Sarkozy_dis62",0,0,NA,"CorrectRejection"
"394","1","female",21,"right",2,"IFR",1,"Inverted",114,"Sarkozy_cib61",1,1,374,"Hit"
"395","1","female",21,"right",2,"IFR",1,"Inverted",115,"Sarkozy_dis36",0,0,NA,"CorrectRejection"
"396","1","female",21,"right",2,"IFR",1,"Inverted",116,"Sarkozy_cib37",1,1,388,"Hit"
"397","1","female",21,"right",2,"IFR",1,"Inverted",117,"Sarkozy_cib12",1,1,389,"Hit"
"398","1","female",21,"right",2,"IFR",1,"Inverted",118,"Sarkozy_cib65",1,1,367,"Hit"
"399","1","female",21,"right",2,"IFR",1,"Inverted",119,"Sarkozy_dis41",0,0,NA,"CorrectRejection"
"400","1","female",21,"right",2,"IFR",1,"Inverted",120,"Sarkozy_dis16",0,0,NA,"CorrectRejection"
"401","1","female",21,"right",2,"IFR",1,"Inverted",121,"Sarkozy_cib29",1,1,390,"Hit"
"402","1","female",21,"right",2,"IFR",1,"Inverted",122,"Sarkozy_dis57",0,0,NA,"CorrectRejection"
"403","1","female",21,"right",2,"IFR",1,"Inverted",123,"Sarkozy_cib44",1,1,338,"Hit"
"404","1","female",21,"right",2,"IFR",1,"Inverted",124,"Sarkozy_cib56",1,0,NA,"Missed"
"405","1","female",21,"right",2,"IFR",1,"Inverted",125,"Sarkozy_dis61",0,0,NA,"CorrectRejection"
"406","1","female",21,"right",2,"IFR",1,"Inverted",126,"Sarkozy_dis26",0,0,NA,"CorrectRejection"
"407","1","female",21,"right",2,"IFR",1,"Inverted",127,"Sarkozy_dis64",0,0,NA,"CorrectRejection"
"408","1","female",21,"right",2,"IFR",1,"Inverted",128,"Sarkozy_dis03",0,0,NA,"CorrectRejection"
"409","1","female",21,"right",2,"IFR",1,"Inverted",129,"Sarkozy_cib67",1,1,379,"Hit"
"410","1","female",21,"right",2,"IFR",1,"Inverted",130,"Sarkozy_cib17",1,1,370,"Hit"
"411","1","female",21,"right",2,"IFR",1,"Inverted",131,"Sarkozy_cib16",1,1,324,"Hit"
"412","1","female",21,"right",2,"IFR",1,"Inverted",132,"Sarkozy_cib03",1,1,366,"Hit"
"413","1","female",21,"right",2,"IFR",1,"Inverted",133,"Sarkozy_cib57",1,1,332,"Hit"
"414","1","female",21,"right",2,"IFR",1,"Inverted",134,"Sarkozy_dis67",0,0,NA,"CorrectRejection"
"415","1","female",21,"right",2,"IFR",1,"Inverted",135,"Sarkozy_cib58",1,0,NA,"Missed"
"416","1","female",21,"right",2,"IFR",1,"Inverted",136,"Sarkozy_dis39",0,0,NA,"CorrectRejection"
"417","1","female",21,"right",2,"IFR",1,"Inverted",137,"Sarkozy_cib08",1,1,351,"Hit"
"418","1","female",21,"right",2,"IFR",1,"Inverted",138,"Sarkozy_cib38",1,1,433,"Hit"
"419","1","female",21,"right",2,"IFR",1,"Inverted",139,"Sarkozy_dis24",0,0,NA,"CorrectRejection"
"420","1","female",21,"right",2,"IFR",1,"Inverted",140,"Sarkozy_dis49",0,0,NA,"CorrectRejection"
"421","1","female",21,"right",2,"IFR",2,"Upright",1,"Johnny_dis32",0,0,NA,"CorrectRejection"
"422","1","female",21,"right",2,"IFR",2,"Upright",2,"Johnny_cib05",1,1,370,"Hit"
"423","1","female",21,"right",2,"IFR",2,"Upright",3,"Johnny_cib64",1,1,315,"Hit"
"424","1","female",21,"right",2,"IFR",2,"Upright",4,"Johnny_dis68",0,0,NA,"CorrectRejection"
"425","1","female",21,"right",2,"IFR",2,"Upright",5,"Johnny_dis63",0,0,NA,"CorrectRejection"
"426","1","female",21,"right",2,"IFR",2,"Upright",6,"Johnny_cib54",1,1,399,"Hit"
"427","1","female",21,"right",2,"IFR",2,"Upright",7,"Johnny_cib66",1,1,356,"Hit"
"428","1","female",21,"right",2,"IFR",2,"Upright",8,"Johnny_cib32",1,1,361,"Hit"
"429","1","female",21,"right",2,"IFR",2,"Upright",9,"Johnny_cib15",1,1,320,"Hit"
"430","1","female",21,"right",2,"IFR",2,"Upright",10,"Johnny_cib58",1,1,326,"Hit"
"431","1","female",21,"right",2,"IFR",2,"Upright",11,"Johnny_dis56",0,0,NA,"CorrectRejection"
"432","1","female",21,"right",2,"IFR",2,"Upright",12,"Johnny_cib14",1,1,311,"Hit"
"433","1","female",21,"right",2,"IFR",2,"Upright",13,"Johnny_cib26",1,1,420,"Hit"
"434","1","female",21,"right",2,"IFR",2,"Upright",14,"Johnny_cib39",1,1,329,"Hit"
"435","1","female",21,"right",2,"IFR",2,"Upright",15,"Johnny_cib61",1,1,444,"Hit"
"436","1","female",21,"right",2,"IFR",2,"Upright",16,"Johnny_cib67",1,1,354,"Hit"
"437","1","female",21,"right",2,"IFR",2,"Upright",17,"Johnny_dis01",0,0,NA,"CorrectRejection"
"438","1","female",21,"right",2,"IFR",2,"Upright",18,"Johnny_cib35",1,1,320,"Hit"
"439","1","female",21,"right",2,"IFR",2,"Upright",19,"Johnny_dis17",0,0,NA,"CorrectRejection"
"440","1","female",21,"right",2,"IFR",2,"Upright",20,"Johnny_dis08",0,0,NA,"CorrectRejection"
"441","1","female",21,"right",2,"IFR",2,"Upright",21,"Johnny_cib01",1,1,347,"Hit"
"442","1","female",21,"right",2,"IFR",2,"Upright",22,"Johnny_cib41",1,1,350,"Hit"
"443","1","female",21,"right",2,"IFR",2,"Upright",23,"Johnny_cib37",1,1,280,"Hit"
"444","1","female",21,"right",2,"IFR",2,"Upright",24,"Johnny_dis38",0,0,NA,"CorrectRejection"
"445","1","female",21,"right",2,"IFR",2,"Upright",25,"Johnny_dis49",0,0,NA,"CorrectRejection"
"446","1","female",21,"right",2,"IFR",2,"Upright",26,"Johnny_cib33",1,1,381,"Hit"
"447","1","female",21,"right",2,"IFR",2,"Upright",27,"Johnny_cib10",1,1,308,"Hit"
"448","1","female",21,"right",2,"IFR",2,"Upright",28,"Johnny_dis60",0,0,NA,"CorrectRejection"
"449","1","female",21,"right",2,"IFR",2,"Upright",29,"Johnny_dis51",0,0,NA,"CorrectRejection"
"450","1","female",21,"right",2,"IFR",2,"Upright",30,"Johnny_dis67",0,0,NA,"CorrectRejection"
"451","1","female",21,"right",2,"IFR",2,"Upright",31,"Johnny_cib31",1,1,395,"Hit"
"452","1","female",21,"right",2,"IFR",2,"Upright",32,"Johnny_dis52",0,0,NA,"CorrectRejection"
"453","1","female",21,"right",2,"IFR",2,"Upright",33,"Johnny_dis31",0,0,NA,"CorrectRejection"
"454","1","female",21,"right",2,"IFR",2,"Upright",34,"Johnny_cib57",1,1,383,"Hit"
"455","1","female",21,"right",2,"IFR",2,"Upright",35,"Johnny_cib19",1,1,332,"Hit"
"456","1","female",21,"right",2,"IFR",2,"Upright",36,"Johnny_dis07",0,0,NA,"CorrectRejection"
"457","1","female",21,"right",2,"IFR",2,"Upright",37,"Johnny_dis14",0,0,NA,"CorrectRejection"
"458","1","female",21,"right",2,"IFR",2,"Upright",38,"Johnny_dis06",0,0,NA,"CorrectRejection"
"459","1","female",21,"right",2,"IFR",2,"Upright",39,"Johnny_cib62",1,0,NA,"Missed"
"460","1","female",21,"right",2,"IFR",2,"Upright",40,"Johnny_dis04",0,0,NA,"CorrectRejection"
"461","1","female",21,"right",2,"IFR",2,"Upright",41,"Johnny_dis20",0,0,NA,"CorrectRejection"
"462","1","female",21,"right",2,"IFR",2,"Upright",42,"Johnny_cib69",1,1,318,"Hit"
"463","1","female",21,"right",2,"IFR",2,"Upright",43,"Johnny_dis45",0,0,NA,"CorrectRejection"
"464","1","female",21,"right",2,"IFR",2,"Upright",44,"Johnny_dis25",0,0,NA,"CorrectRejection"
"465","1","female",21,"right",2,"IFR",2,"Upright",45,"Johnny_cib55",1,1,348,"Hit"
"466","1","female",21,"right",2,"IFR",2,"Upright",46,"Johnny_cib04",1,1,324,"Hit"
"467","1","female",21,"right",2,"IFR",2,"Upright",47,"Johnny_cib02",1,1,339,"Hit"
"468","1","female",21,"right",2,"IFR",2,"Upright",48,"Johnny_cib47",1,1,321,"Hit"
"469","1","female",21,"right",2,"IFR",2,"Upright",49,"Johnny_cib65",1,1,397,"Hit"
"470","1","female",21,"right",2,"IFR",2,"Upright",50,"Johnny_dis54",0,0,NA,"CorrectRejection"
"471","1","female",21,"right",2,"IFR",2,"Upright",51,"Johnny_dis24",0,0,NA,"CorrectRejection"
"472","1","female",21,"right",2,"IFR",2,"Upright",52,"Johnny_dis39",0,0,NA,"CorrectRejection"
"473","1","female",21,"right",2,"IFR",2,"Upright",53,"Johnny_dis62",0,0,NA,"CorrectRejection"
"474","1","female",21,"right",2,"IFR",2,"Upright",54,"Johnny_cib44",1,1,345,"Hit"
"475","1","female",21,"right",2,"IFR",2,"Upright",55,"Johnny_cib13",1,1,263,"Hit"
"476","1","female",21,"right",2,"IFR",2,"Upright",56,"Johnny_cib43",1,1,374,"Hit"
"477","1","female",21,"right",2,"IFR",2,"Upright",57,"Johnny_dis11",0,1,284,"FalseAlarm"
"478","1","female",21,"right",2,"IFR",2,"Upright",58,"Johnny_cib50",1,1,312,"Hit"
"479","1","female",21,"right",2,"IFR",2,"Upright",59,"Johnny_dis16",0,0,NA,"CorrectRejection"
"480","1","female",21,"right",2,"IFR",2,"Upright",60,"Johnny_dis21",0,0,NA,"CorrectRejection"
"481","1","female",21,"right",2,"IFR",2,"Upright",61,"Johnny_cib38",1,1,393,"Hit"
"482","1","female",21,"right",2,"IFR",2,"Upright",62,"Johnny_dis70",0,0,NA,"CorrectRejection"
"483","1","female",21,"right",2,"IFR",2,"Upright",63,"Johnny_dis69",0,0,NA,"CorrectRejection"
"484","1","female",21,"right",2,"IFR",2,"Upright",64,"Johnny_dis02",0,0,NA,"CorrectRejection"
"485","1","female",21,"right",2,"IFR",2,"Upright",65,"Johnny_cib18",1,1,379,"Hit"
"486","1","female",21,"right",2,"IFR",2,"Upright",66,"Johnny_cib36",1,1,358,"Hit"
"487","1","female",21,"right",2,"IFR",2,"Upright",67,"Johnny_dis35",0,0,NA,"CorrectRejection"
"488","1","female",21,"right",2,"IFR",2,"Upright",68,"Johnny_cib20",1,1,519,"Hit"
"489","1","female",21,"right",2,"IFR",2,"Upright",69,"Johnny_cib16",1,1,306,"Hit"
"490","1","female",21,"right",2,"IFR",2,"Upright",70,"Johnny_dis42",0,0,NA,"CorrectRejection"
"491","1","female",21,"right",2,"IFR",2,"Upright",71,"Johnny_dis44",0,0,NA,"CorrectRejection"
"492","1","female",21,"right",2,"IFR",2,"Upright",72,"Johnny_cib27",1,1,375,"Hit"
"493","1","female",21,"right",2,"IFR",2,"Upright",73,"Johnny_dis28",0,0,NA,"CorrectRejection"
"494","1","female",21,"right",2,"IFR",2,"Upright",74,"Johnny_dis23",0,0,NA,"CorrectRejection"
"495","1","female",21,"right",2,"IFR",2,"Upright",75,"Johnny_cib56",1,1,356,"Hit"
"496","1","female",21,"right",2,"IFR",2,"Upright",76,"Johnny_cib59",1,1,357,"Hit"
"497","1","female",21,"right",2,"IFR",2,"Upright",77,"Johnny_cib09",1,1,349,"Hit"
"498","1","female",21,"right",2,"IFR",2,"Upright",78,"Johnny_cib22",1,1,320,"Hit"
"499","1","female",21,"right",2,"IFR",2,"Upright",79,"Johnny_dis40",0,0,NA,"CorrectRejection"
"500","1","female",21,"right",2,"IFR",2,"Upright",80,"Johnny_cib25",1,1,329,"Hit"
"501","1","female",21,"right",2,"IFR",2,"Upright",81,"Johnny_dis26",0,0,NA,"CorrectRejection"
"502","1","female",21,"right",2,"IFR",2,"Upright",82,"Johnny_dis64",0,0,NA,"CorrectRejection"
"503","1","female",21,"right",2,"IFR",2,"Upright",83,"Johnny_cib40",1,1,380,"Hit"
"504","1","female",21,"right",2,"IFR",2,"Upright",84,"Johnny_cib52",1,1,349,"Hit"
"505","1","female",21,"right",2,"IFR",2,"Upright",85,"Johnny_dis29",0,0,NA,"CorrectRejection"
"506","1","female",21,"right",2,"IFR",2,"Upright",86,"Johnny_dis47",0,0,NA,"CorrectRejection"
"507","1","female",21,"right",2,"IFR",2,"Upright",87,"Johnny_cib60",1,1,390,"Hit"
"508","1","female",21,"right",2,"IFR",2,"Upright",88,"Johnny_cib49",1,1,368,"Hit"
"509","1","female",21,"right",2,"IFR",2,"Upright",89,"Johnny_cib30",1,1,413,"Hit"
"510","1","female",21,"right",2,"IFR",2,"Upright",90,"Johnny_cib42",1,1,315,"Hit"
"511","1","female",21,"right",2,"IFR",2,"Upright",91,"Johnny_cib08",1,1,504,"Hit"
"512","1","female",21,"right",2,"IFR",2,"Upright",92,"Johnny_cib29",1,1,365,"Hit"
"513","1","female",21,"right",2,"IFR",2,"Upright",93,"Johnny_cib03",1,1,366,"Hit"
"514","1","female",21,"right",2,"IFR",2,"Upright",94,"Johnny_cib46",1,1,276,"Hit"
"515","1","female",21,"right",2,"IFR",2,"Upright",95,"Johnny_dis33",0,0,NA,"CorrectRejection"
"516","1","female",21,"right",2,"IFR",2,"Upright",96,"Johnny_dis46",0,0,NA,"CorrectRejection"
"517","1","female",21,"right",2,"IFR",2,"Upright",97,"Johnny_cib28",1,1,408,"Hit"
"518","1","female",21,"right",2,"IFR",2,"Upright",98,"Johnny_dis48",0,0,NA,"CorrectRejection"
"519","1","female",21,"right",2,"IFR",2,"Upright",99,"Johnny_dis22",0,0,NA,"CorrectRejection"
"520","1","female",21,"right",2,"IFR",2,"Upright",100,"Johnny_dis05",0,0,NA,"CorrectRejection"
"521","1","female",21,"right",2,"IFR",2,"Upright",101,"Johnny_cib45",1,1,350,"Hit"
"522","1","female",21,"right",2,"IFR",2,"Upright",102,"Johnny_dis57",0,0,NA,"CorrectRejection"
"523","1","female",21,"right",2,"IFR",2,"Upright",103,"Johnny_dis34",0,0,NA,"CorrectRejection"
"524","1","female",21,"right",2,"IFR",2,"Upright",104,"Johnny_cib68",1,1,345,"Hit"
"525","1","female",21,"right",2,"IFR",2,"Upright",105,"Johnny_cib53",1,1,315,"Hit"
"526","1","female",21,"right",2,"IFR",2,"Upright",106,"Johnny_cib06",1,0,NA,"Missed"
"527","1","female",21,"right",2,"IFR",2,"Upright",107,"Johnny_dis27",0,0,NA,"CorrectRejection"
"528","1","female",21,"right",2,"IFR",2,"Upright",108,"Johnny_cib17",1,1,298,"Hit"
"529","1","female",21,"right",2,"IFR",2,"Upright",109,"Johnny_cib12",1,1,320,"Hit"
"530","1","female",21,"right",2,"IFR",2,"Upright",110,"Johnny_cib21",1,1,311,"Hit"
"531","1","female",21,"right",2,"IFR",2,"Upright",111,"Johnny_dis55",0,0,NA,"CorrectRejection"
"532","1","female",21,"right",2,"IFR",2,"Upright",112,"Johnny_cib51",1,1,335,"Hit"
"533","1","female",21,"right",2,"IFR",2,"Upright",113,"Johnny_cib34",1,1,322,"Hit"
"534","1","female",21,"right",2,"IFR",2,"Upright",114,"Johnny_dis18",0,0,NA,"CorrectRejection"
"535","1","female",21,"right",2,"IFR",2,"Upright",115,"Johnny_dis37",0,0,NA,"CorrectRejection"
"536","1","female",21,"right",2,"IFR",2,"Upright",116,"Johnny_dis03",0,0,NA,"CorrectRejection"
"537","1","female",21,"right",2,"IFR",2,"Upright",117,"Johnny_cib11",1,1,331,"Hit"
"538","1","female",21,"right",2,"IFR",2,"Upright",118,"Johnny_dis58",0,0,NA,"CorrectRejection"
"539","1","female",21,"right",2,"IFR",2,"Upright",119,"Johnny_dis65",0,0,NA,"CorrectRejection"
"540","1","female",21,"right",2,"IFR",2,"Upright",120,"Johnny_dis61",0,0,NA,"CorrectRejection"
"541","1","female",21,"right",2,"IFR",2,"Upright",121,"Johnny_dis43",0,0,NA,"CorrectRejection"
"542","1","female",21,"right",2,"IFR",2,"Upright",122,"Johnny_cib70",1,1,397,"Hit"
"543","1","female",21,"right",2,"IFR",2,"Upright",123,"Johnny_dis09",0,0,NA,"CorrectRejection"
"544","1","female",21,"right",2,"IFR",2,"Upright",124,"Johnny_dis59",0,0,NA,"CorrectRejection"
"545","1","female",21,"right",2,"IFR",2,"Upright",125,"Johnny_dis41",0,0,NA,"CorrectRejection"
"546","1","female",21,"right",2,"IFR",2,"Upright",126,"Johnny_dis50",0,0,NA,"CorrectRejection"
"547","1","female",21,"right",2,"IFR",2,"Upright",127,"Johnny_dis19",0,0,NA,"CorrectRejection"
"548","1","female",21,"right",2,"IFR",2,"Upright",128,"Johnny_dis30",0,0,NA,"CorrectRejection"
"549","1","female",21,"right",2,"IFR",2,"Upright",129,"Johnny_dis66",0,0,NA,"CorrectRejection"
"550","1","female",21,"right",2,"IFR",2,"Upright",130,"Johnny_dis53",0,0,NA,"CorrectRejection"
"551","1","female",21,"right",2,"IFR",2,"Upright",131,"Johnny_cib23",1,1,359,"Hit"
"552","1","female",21,"right",2,"IFR",2,"Upright",132,"Johnny_dis10",0,0,NA,"CorrectRejection"
"553","1","female",21,"right",2,"IFR",2,"Upright",133,"Johnny_cib07",1,1,372,"Hit"
"554","1","female",21,"right",2,"IFR",2,"Upright",134,"Johnny_cib48",1,1,369,"Hit"
"555","1","female",21,"right",2,"IFR",2,"Upright",135,"Johnny_dis36",0,0,NA,"CorrectRejection"
"556","1","female",21,"right",2,"IFR",2,"Upright",136,"Johnny_dis15",0,0,NA,"CorrectRejection"
"557","1","female",21,"right",2,"IFR",2,"Upright",137,"Johnny_cib24",1,1,399,"Hit"
"558","1","female",21,"right",2,"IFR",2,"Upright",138,"Johnny_dis12",0,0,NA,"CorrectRejection"
"559","1","female",21,"right",2,"IFR",2,"Upright",139,"Johnny_dis13",0,0,NA,"CorrectRejection"
"560","1","female",21,"right",2,"IFR",2,"Upright",140,"Johnny_cib63",1,1,337,"Hit"
"561","1","female",21,"right",3,"FFR",1,"Inverted",1,"Connus_cib049",1,1,529,"Hit"
"562","1","female",21,"right",3,"FFR",1,"Inverted",2,"Connus_dis076",0,0,NA,"CorrectRejection"
"563","1","female",21,"right",3,"FFR",1,"Inverted",3,"Connus_dis060",0,1,593,"FalseAlarm"
"564","1","female",21,"right",3,"FFR",1,"Inverted",4,"Connus_dis132",0,0,NA,"CorrectRejection"
"565","1","female",21,"right",3,"FFR",1,"Inverted",5,"Connus_dis116",0,0,NA,"CorrectRejection"
"566","1","female",21,"right",3,"FFR",1,"Inverted",6,"Connus_cib043",1,1,545,"Hit"
"567","1","female",21,"right",3,"FFR",1,"Inverted",7,"Connus_dis050",0,0,NA,"CorrectRejection"
"568","1","female",21,"right",3,"FFR",1,"Inverted",8,"Connus_cib136",1,1,529,"Hit"
"569","1","female",21,"right",3,"FFR",1,"Inverted",9,"Connus_dis014",0,1,484,"FalseAlarm"
"570","1","female",21,"right",3,"FFR",1,"Inverted",10,"Connus_cib039",1,1,494,"Hit"
"571","1","female",21,"right",3,"FFR",1,"Inverted",11,"Connus_dis030",0,1,498,"FalseAlarm"
"572","1","female",21,"right",3,"FFR",1,"Inverted",12,"Connus_dis048",0,0,NA,"CorrectRejection"
"573","1","female",21,"right",3,"FFR",1,"Inverted",13,"Connus_cib051",1,0,NA,"Missed"
"574","1","female",21,"right",3,"FFR",1,"Inverted",14,"Connus_dis006",0,0,NA,"CorrectRejection"
"575","1","female",21,"right",3,"FFR",1,"Inverted",15,"Connus_cib059",1,0,NA,"Missed"
"576","1","female",21,"right",3,"FFR",1,"Inverted",16,"Connus_dis012",0,0,NA,"CorrectRejection"
"577","1","female",21,"right",3,"FFR",1,"Inverted",17,"Connus_cib133",1,1,493,"Hit"
"578","1","female",21,"right",3,"FFR",1,"Inverted",18,"Connus_dis064",0,0,NA,"CorrectRejection"
"579","1","female",21,"right",3,"FFR",1,"Inverted",19,"Connus_dis134",0,0,NA,"CorrectRejection"
"580","1","female",21,"right",3,"FFR",1,"Inverted",20,"Connus_cib122",1,0,NA,"Missed"
"581","1","female",21,"right",3,"FFR",1,"Inverted",21,"Connus_cib113",1,0,NA,"Missed"
"582","1","female",21,"right",3,"FFR",1,"Inverted",22,"Connus_cib055",1,0,NA,"Missed"
"583","1","female",21,"right",3,"FFR",1,"Inverted",23,"Connus_cib068",1,0,NA,"Missed"
"584","1","female",21,"right",3,"FFR",1,"Inverted",24,"Connus_dis106",0,1,389,"FalseAlarm"
"585","1","female",21,"right",3,"FFR",1,"Inverted",25,"Connus_cib126",1,1,541,"Hit"
"586","1","female",21,"right",3,"FFR",1,"Inverted",26,"Connus_cib120",1,0,NA,"Missed"
"587","1","female",21,"right",3,"FFR",1,"Inverted",27,"Connus_cib139",1,1,542,"Hit"
"588","1","female",21,"right",3,"FFR",1,"Inverted",28,"Connus_cib127",1,0,NA,"Missed"
"589","1","female",21,"right",3,"FFR",1,"Inverted",29,"Connus_cib114",1,1,424,"Hit"
"590","1","female",21,"right",3,"FFR",1,"Inverted",30,"Connus_dis130",0,1,491,"FalseAlarm"
"591","1","female",21,"right",3,"FFR",1,"Inverted",31,"Connus_dis126",0,0,NA,"CorrectRejection"
"592","1","female",21,"right",3,"FFR",1,"Inverted",32,"Connus_dis072",0,0,NA,"CorrectRejection"
"593","1","female",21,"right",3,"FFR",1,"Inverted",33,"Connus_cib050",1,0,NA,"Missed"
"594","1","female",21,"right",3,"FFR",1,"Inverted",34,"Connus_cib038",1,0,NA,"Missed"
"595","1","female",21,"right",3,"FFR",1,"Inverted",35,"Connus_dis032",0,1,437,"FalseAlarm"
"596","1","female",21,"right",3,"FFR",1,"Inverted",36,"Connus_dis110",0,0,NA,"CorrectRejection"
"597","1","female",21,"right",3,"FFR",1,"Inverted",37,"Connus_cib042",1,1,436,"Hit"
"598","1","female",21,"right",3,"FFR",1,"Inverted",38,"Connus_dis066",0,0,NA,"CorrectRejection"
"599","1","female",21,"right",3,"FFR",1,"Inverted",39,"Connus_dis138",0,1,463,"FalseAlarm"
"600","1","female",21,"right",3,"FFR",1,"Inverted",40,"Connus_cib123",1,1,546,"Hit"
"601","1","female",21,"right",3,"FFR",1,"Inverted",41,"Connus_cib063",1,0,NA,"Missed"
"602","1","female",21,"right",3,"FFR",1,"Inverted",42,"Connus_dis002",0,1,517,"FalseAlarm"
"603","1","female",21,"right",3,"FFR",1,"Inverted",43,"Connus_cib048",1,0,NA,"Missed"
"604","1","female",21,"right",3,"FFR",1,"Inverted",44,"Connus_cib060",1,0,NA,"Missed"
"605","1","female",21,"right",3,"FFR",1,"Inverted",45,"Connus_cib132",1,1,450,"Hit"
"606","1","female",21,"right",3,"FFR",1,"Inverted",46,"Connus_cib109",1,0,NA,"Missed"
"607","1","female",21,"right",3,"FFR",1,"Inverted",47,"Connus_dis022",0,1,454,"FalseAlarm"
"608","1","female",21,"right",3,"FFR",1,"Inverted",48,"Connus_dis092",0,1,432,"FalseAlarm"
"609","1","female",21,"right",3,"FFR",1,"Inverted",49,"Connus_dis042",0,0,NA,"CorrectRejection"
"610","1","female",21,"right",3,"FFR",1,"Inverted",50,"Connus_cib108",1,0,NA,"Missed"
"611","1","female",21,"right",3,"FFR",1,"Inverted",51,"Connus_cib111",1,0,NA,"Missed"
"612","1","female",21,"right",3,"FFR",1,"Inverted",52,"Connus_cib057",1,0,NA,"Missed"
"613","1","female",21,"right",3,"FFR",1,"Inverted",53,"Connus_cib064",1,1,240,"Hit"
"614","1","female",21,"right",3,"FFR",1,"Inverted",54,"Connus_dis112",0,0,NA,"CorrectRejection"
"615","1","female",21,"right",3,"FFR",1,"Inverted",55,"Connus_dis102",0,0,NA,"CorrectRejection"
"616","1","female",21,"right",3,"FFR",1,"Inverted",56,"Connus_dis074",0,1,475,"FalseAlarm"
"617","1","female",21,"right",3,"FFR",1,"Inverted",57,"Connus_dis004",0,1,482,"FalseAlarm"
"618","1","female",21,"right",3,"FFR",1,"Inverted",58,"Connus_cib066",1,0,NA,"Missed"
"619","1","female",21,"right",3,"FFR",1,"Inverted",59,"Connus_dis062",0,1,427,"FalseAlarm"
"620","1","female",21,"right",3,"FFR",1,"Inverted",60,"Connus_cib134",1,0,NA,"Missed"
"621","1","female",21,"right",3,"FFR",1,"Inverted",61,"Connus_dis056",0,0,NA,"CorrectRejection"
"622","1","female",21,"right",3,"FFR",1,"Inverted",62,"Connus_cib046",1,1,513,"Hit"
"623","1","female",21,"right",3,"FFR",1,"Inverted",63,"Connus_cib067",1,0,NA,"Missed"
"624","1","female",21,"right",3,"FFR",1,"Inverted",64,"Connus_dis118",0,0,NA,"CorrectRejection"
"625","1","female",21,"right",3,"FFR",1,"Inverted",65,"Connus_dis034",0,0,NA,"CorrectRejection"
"626","1","female",21,"right",3,"FFR",1,"Inverted",66,"Connus_cib117",1,0,NA,"Missed"
"627","1","female",21,"right",3,"FFR",1,"Inverted",67,"Connus_dis038",0,0,NA,"CorrectRejection"
"628","1","female",21,"right",3,"FFR",1,"Inverted",68,"Connus_cib125",1,0,NA,"Missed"
"629","1","female",21,"right",3,"FFR",1,"Inverted",69,"Connus_dis090",0,0,NA,"CorrectRejection"
"630","1","female",21,"right",3,"FFR",1,"Inverted",70,"Connus_cib040",1,0,NA,"Missed"
"631","1","female",21,"right",3,"FFR",1,"Inverted",71,"Connus_dis124",0,0,NA,"CorrectRejection"
"632","1","female",21,"right",3,"FFR",1,"Inverted",72,"Connus_cib118",1,0,NA,"Missed"
"633","1","female",21,"right",3,"FFR",1,"Inverted",73,"Connus_cib065",1,1,456,"Hit"
"634","1","female",21,"right",3,"FFR",1,"Inverted",74,"Connus_dis080",0,1,416,"FalseAlarm"
"635","1","female",21,"right",3,"FFR",1,"Inverted",75,"Connus_cib110",1,1,530,"Hit"
"636","1","female",21,"right",3,"FFR",1,"Inverted",76,"Connus_cib119",1,0,NA,"Missed"
"637","1","female",21,"right",3,"FFR",1,"Inverted",77,"Connus_dis086",0,1,568,"FalseAlarm"
"638","1","female",21,"right",3,"FFR",1,"Inverted",78,"Connus_cib115",1,0,NA,"Missed"
"639","1","female",21,"right",3,"FFR",1,"Inverted",79,"Connus_cib041",1,1,468,"Hit"
"640","1","female",21,"right",3,"FFR",1,"Inverted",80,"Connus_cib062",1,1,474,"Hit"
"641","1","female",21,"right",3,"FFR",1,"Inverted",81,"Connus_dis016",0,1,564,"FalseAlarm"
"642","1","female",21,"right",3,"FFR",1,"Inverted",82,"Connus_dis120",0,0,NA,"CorrectRejection"
"643","1","female",21,"right",3,"FFR",1,"Inverted",83,"Connus_dis108",0,0,NA,"CorrectRejection"
"644","1","female",21,"right",3,"FFR",1,"Inverted",84,"Connus_cib112",1,0,NA,"Missed"
"645","1","female",21,"right",3,"FFR",1,"Inverted",85,"Connus_cib106",1,1,533,"Hit"
"646","1","female",21,"right",3,"FFR",1,"Inverted",86,"Connus_cib140",1,1,376,"Hit"
"647","1","female",21,"right",3,"FFR",1,"Inverted",87,"Connus_dis020",0,0,NA,"CorrectRejection"
"648","1","female",21,"right",3,"FFR",1,"Inverted",88,"Connus_cib131",1,1,423,"Hit"
"649","1","female",21,"right",3,"FFR",1,"Inverted",89,"Connus_dis088",0,1,564,"FalseAlarm"
"650","1","female",21,"right",3,"FFR",1,"Inverted",90,"Connus_cib121",1,1,592,"Hit"
"651","1","female",21,"right",3,"FFR",1,"Inverted",91,"Connus_dis098",0,0,NA,"CorrectRejection"
"652","1","female",21,"right",3,"FFR",1,"Inverted",92,"Connus_dis128",0,1,545,"FalseAlarm"
"653","1","female",21,"right",3,"FFR",1,"Inverted",93,"Connus_dis046",0,0,NA,"CorrectRejection"
"654","1","female",21,"right",3,"FFR",1,"Inverted",94,"Connus_dis008",0,0,NA,"CorrectRejection"
"655","1","female",21,"right",3,"FFR",1,"Inverted",95,"Connus_dis078",0,0,NA,"CorrectRejection"
"656","1","female",21,"right",3,"FFR",1,"Inverted",96,"Connus_dis094",0,1,431,"FalseAlarm"
"657","1","female",21,"right",3,"FFR",1,"Inverted",97,"Connus_dis140",0,0,NA,"CorrectRejection"
"658","1","female",21,"right",3,"FFR",1,"Inverted",98,"Connus_dis070",0,0,NA,"CorrectRejection"
"659","1","female",21,"right",3,"FFR",1,"Inverted",99,"Connus_dis024",0,0,NA,"CorrectRejection"
"660","1","female",21,"right",3,"FFR",1,"Inverted",100,"Connus_dis104",0,0,NA,"CorrectRejection"
"661","1","female",21,"right",3,"FFR",1,"Inverted",101,"Connus_cib116",1,0,NA,"Missed"
"662","1","female",21,"right",3,"FFR",1,"Inverted",102,"Connus_dis068",0,0,NA,"CorrectRejection"
"663","1","female",21,"right",3,"FFR",1,"Inverted",103,"Connus_cib128",1,0,NA,"Missed"
"664","1","female",21,"right",3,"FFR",1,"Inverted",104,"Connus_cib047",1,1,526,"Hit"
"665","1","female",21,"right",3,"FFR",1,"Inverted",105,"Connus_dis010",0,1,486,"FalseAlarm"
"666","1","female",21,"right",3,"FFR",1,"Inverted",106,"Connus_dis136",0,0,NA,"CorrectRejection"
"667","1","female",21,"right",3,"FFR",1,"Inverted",107,"Connus_cib053",1,1,509,"Hit"
"668","1","female",21,"right",3,"FFR",1,"Inverted",108,"Connus_cib056",1,0,NA,"Missed"
"669","1","female",21,"right",3,"FFR",1,"Inverted",109,"Connus_dis082",0,0,NA,"CorrectRejection"
"670","1","female",21,"right",3,"FFR",1,"Inverted",110,"Connus_dis028",0,0,NA,"CorrectRejection"
"671","1","female",21,"right",3,"FFR",1,"Inverted",111,"Connus_cib054",1,1,475,"Hit"
"672","1","female",21,"right",3,"FFR",1,"Inverted",112,"Connus_cib137",1,0,NA,"Missed"
"673","1","female",21,"right",3,"FFR",1,"Inverted",113,"Connus_dis114",0,0,NA,"CorrectRejection"
"674","1","female",21,"right",3,"FFR",1,"Inverted",114,"Connus_dis054",0,0,NA,"CorrectRejection"
"675","1","female",21,"right",3,"FFR",1,"Inverted",115,"Connus_cib130",1,0,NA,"Missed"
"676","1","female",21,"right",3,"FFR",1,"Inverted",116,"Connus_cib069",1,1,588,"Hit"
"677","1","female",21,"right",3,"FFR",1,"Inverted",117,"Connus_dis100",0,0,NA,"CorrectRejection"
"678","1","female",21,"right",3,"FFR",1,"Inverted",118,"Connus_cib037",1,1,572,"Hit"
"679","1","female",21,"right",3,"FFR",1,"Inverted",119,"Connus_cib052",1,0,NA,"Missed"
"680","1","female",21,"right",3,"FFR",1,"Inverted",120,"Connus_cib045",1,1,560,"Hit"
"681","1","female",21,"right",3,"FFR",1,"Inverted",121,"Connus_cib107",1,1,509,"Hit"
"682","1","female",21,"right",3,"FFR",1,"Inverted",122,"Connus_dis026",0,0,NA,"CorrectRejection"
"683","1","female",21,"right",3,"FFR",1,"Inverted",123,"Connus_cib070",1,1,535,"Hit"
"684","1","female",21,"right",3,"FFR",1,"Inverted",124,"Connus_dis044",0,0,NA,"CorrectRejection"
"685","1","female",21,"right",3,"FFR",1,"Inverted",125,"Connus_dis122",0,0,NA,"CorrectRejection"
"686","1","female",21,"right",3,"FFR",1,"Inverted",126,"Connus_dis040",0,0,NA,"CorrectRejection"
"687","1","female",21,"right",3,"FFR",1,"Inverted",127,"Connus_dis018",0,1,511,"FalseAlarm"
"688","1","female",21,"right",3,"FFR",1,"Inverted",128,"Connus_cib044",1,0,NA,"Missed"
"689","1","female",21,"right",3,"FFR",1,"Inverted",129,"Connus_dis058",0,1,564,"FalseAlarm"
"690","1","female",21,"right",3,"FFR",1,"Inverted",130,"Connus_cib036",1,1,485,"Hit"
"691","1","female",21,"right",3,"FFR",1,"Inverted",131,"Connus_cib061",1,0,NA,"Missed"
"692","1","female",21,"right",3,"FFR",1,"Inverted",132,"Connus_cib124",1,1,543,"Hit"
"693","1","female",21,"right",3,"FFR",1,"Inverted",133,"Connus_dis096",0,0,NA,"CorrectRejection"
"694","1","female",21,"right",3,"FFR",1,"Inverted",134,"Connus_dis036",0,0,NA,"CorrectRejection"
"695","1","female",21,"right",3,"FFR",1,"Inverted",135,"Connus_dis052",0,0,NA,"CorrectRejection"
"696","1","female",21,"right",3,"FFR",1,"Inverted",136,"Connus_cib138",1,1,481,"Hit"
"697","1","female",21,"right",3,"FFR",1,"Inverted",137,"Connus_dis084",0,0,NA,"CorrectRejection"
"698","1","female",21,"right",3,"FFR",1,"Inverted",138,"Connus_cib135",1,1,594,"Hit"
"699","1","female",21,"right",3,"FFR",1,"Inverted",139,"Connus_cib058",1,0,NA,"Missed"
"700","1","female",21,"right",3,"FFR",1,"Inverted",140,"Connus_cib129",1,0,NA,"Missed"
"701","1","female",21,"right",3,"FFR",2,"Upright",1,"Connus_dis077",0,0,NA,"CorrectRejection"
"702","1","female",21,"right",3,"FFR",2,"Upright",2,"Connus_dis061",0,0,NA,"CorrectRejection"
"703","1","female",21,"right",3,"FFR",2,"Upright",3,"Connus_dis043",0,0,NA,"CorrectRejection"
"704","1","female",21,"right",3,"FFR",2,"Upright",4,"Connus_dis097",0,0,NA,"CorrectRejection"
"705","1","female",21,"right",3,"FFR",2,"Upright",5,"Connus_dis131",0,0,NA,"CorrectRejection"
"706","1","female",21,"right",3,"FFR",2,"Upright",6,"Connus_cib082",1,1,463,"Hit"
"707","1","female",21,"right",3,"FFR",2,"Upright",7,"Connus_cib021",1,0,NA,"Missed"
"708","1","female",21,"right",3,"FFR",2,"Upright",8,"Connus_dis093",0,0,NA,"CorrectRejection"
"709","1","female",21,"right",3,"FFR",2,"Upright",9,"Connus_cib012",1,1,432,"Hit"
"710","1","female",21,"right",3,"FFR",2,"Upright",10,"Connus_dis033",0,0,NA,"CorrectRejection"
"711","1","female",21,"right",3,"FFR",2,"Upright",11,"Connus_cib027",1,1,470,"Hit"
"712","1","female",21,"right",3,"FFR",2,"Upright",12,"Connus_dis111",0,0,NA,"CorrectRejection"
"713","1","female",21,"right",3,"FFR",2,"Upright",13,"Connus_cib032",1,1,431,"Hit"
"714","1","female",21,"right",3,"FFR",2,"Upright",14,"Connus_cib102",1,1,536,"Hit"
"715","1","female",21,"right",3,"FFR",2,"Upright",15,"Connus_cib081",1,0,NA,"Missed"
"716","1","female",21,"right",3,"FFR",2,"Upright",16,"Connus_dis107",0,0,NA,"CorrectRejection"
"717","1","female",21,"right",3,"FFR",2,"Upright",17,"Connus_dis135",0,1,591,"FalseAlarm"
"718","1","female",21,"right",3,"FFR",2,"Upright",18,"Connus_dis015",0,0,NA,"CorrectRejection"
"719","1","female",21,"right",3,"FFR",2,"Upright",19,"Connus_cib033",1,0,NA,"Missed"
"720","1","female",21,"right",3,"FFR",2,"Upright",20,"Connus_dis017",0,0,NA,"CorrectRejection"
"721","1","female",21,"right",3,"FFR",2,"Upright",21,"Connus_cib002",1,1,416,"Hit"
"722","1","female",21,"right",3,"FFR",2,"Upright",22,"Connus_cib105",1,1,337,"Hit"
"723","1","female",21,"right",3,"FFR",2,"Upright",23,"Connus_cib079",1,1,417,"Hit"
"724","1","female",21,"right",3,"FFR",2,"Upright",24,"Connus_dis007",0,0,NA,"CorrectRejection"
"725","1","female",21,"right",3,"FFR",2,"Upright",25,"Connus_dis057",0,0,NA,"CorrectRejection"
"726","1","female",21,"right",3,"FFR",2,"Upright",26,"Connus_cib090",1,0,NA,"Missed"
"727","1","female",21,"right",3,"FFR",2,"Upright",27,"Connus_cib024",1,1,446,"Hit"
"728","1","female",21,"right",3,"FFR",2,"Upright",28,"Connus_dis025",0,0,NA,"CorrectRejection"
"729","1","female",21,"right",3,"FFR",2,"Upright",29,"Connus_cib009",1,0,NA,"Missed"
"730","1","female",21,"right",3,"FFR",2,"Upright",30,"Connus_cib101",1,1,429,"Hit"
"731","1","female",21,"right",3,"FFR",2,"Upright",31,"Connus_cib083",1,1,422,"Hit"
"732","1","female",21,"right",3,"FFR",2,"Upright",32,"Connus_dis087",0,0,NA,"CorrectRejection"
"733","1","female",21,"right",3,"FFR",2,"Upright",33,"Connus_cib015",1,1,461,"Hit"
"734","1","female",21,"right",3,"FFR",2,"Upright",34,"Connus_cib018",1,0,NA,"Missed"
"735","1","female",21,"right",3,"FFR",2,"Upright",35,"Connus_cib003",1,1,407,"Hit"
"736","1","female",21,"right",3,"FFR",2,"Upright",36,"Connus_cib022",1,1,489,"Hit"
"737","1","female",21,"right",3,"FFR",2,"Upright",37,"Connus_cib026",1,1,528,"Hit"
"738","1","female",21,"right",3,"FFR",2,"Upright",38,"Connus_dis049",0,1,523,"FalseAlarm"
"739","1","female",21,"right",3,"FFR",2,"Upright",39,"Connus_cib035",1,1,465,"Hit"
"740","1","female",21,"right",3,"FFR",2,"Upright",40,"Connus_dis075",0,0,NA,"CorrectRejection"
"741","1","female",21,"right",3,"FFR",2,"Upright",41,"Connus_dis021",0,0,NA,"CorrectRejection"
"742","1","female",21,"right",3,"FFR",2,"Upright",42,"Connus_cib104",1,1,487,"Hit"
"743","1","female",21,"right",3,"FFR",2,"Upright",43,"Connus_dis005",0,0,NA,"CorrectRejection"
"744","1","female",21,"right",3,"FFR",2,"Upright",44,"Connus_dis103",0,0,NA,"CorrectRejection"
"745","1","female",21,"right",3,"FFR",2,"Upright",45,"Connus_cib016",1,1,481,"Hit"
"746","1","female",21,"right",3,"FFR",2,"Upright",46,"Connus_cib077",1,1,477,"Hit"
"747","1","female",21,"right",3,"FFR",2,"Upright",47,"Connus_dis137",0,0,NA,"CorrectRejection"
"748","1","female",21,"right",3,"FFR",2,"Upright",48,"Connus_dis115",0,0,NA,"CorrectRejection"
"749","1","female",21,"right",3,"FFR",2,"Upright",49,"Connus_cib100",1,1,552,"Hit"
"750","1","female",21,"right",3,"FFR",2,"Upright",50,"Connus_cib072",1,1,505,"Hit"
"751","1","female",21,"right",3,"FFR",2,"Upright",51,"Connus_cib001",1,1,507,"Hit"
"752","1","female",21,"right",3,"FFR",2,"Upright",52,"Connus_dis113",0,0,NA,"CorrectRejection"
"753","1","female",21,"right",3,"FFR",2,"Upright",53,"Connus_cib028",1,1,500,"Hit"
"754","1","female",21,"right",3,"FFR",2,"Upright",54,"Connus_cib004",1,0,NA,"Missed"
"755","1","female",21,"right",3,"FFR",2,"Upright",55,"Connus_dis053",0,0,NA,"CorrectRejection"
"756","1","female",21,"right",3,"FFR",2,"Upright",56,"Connus_dis055",0,0,NA,"CorrectRejection"
"757","1","female",21,"right",3,"FFR",2,"Upright",57,"Connus_cib020",1,1,453,"Hit"
"758","1","female",21,"right",3,"FFR",2,"Upright",58,"Connus_dis027",0,0,NA,"CorrectRejection"
"759","1","female",21,"right",3,"FFR",2,"Upright",59,"Connus_dis125",0,1,435,"FalseAlarm"
"760","1","female",21,"right",3,"FFR",2,"Upright",60,"Connus_dis051",0,0,NA,"CorrectRejection"
"761","1","female",21,"right",3,"FFR",2,"Upright",61,"Connus_dis037",0,0,NA,"CorrectRejection"
"762","1","female",21,"right",3,"FFR",2,"Upright",62,"Connus_dis123",0,0,NA,"CorrectRejection"
"763","1","female",21,"right",3,"FFR",2,"Upright",63,"Connus_cib073",1,1,561,"Hit"
"764","1","female",21,"right",3,"FFR",2,"Upright",64,"Connus_cib013",1,0,NA,"Missed"
"765","1","female",21,"right",3,"FFR",2,"Upright",65,"Connus_dis079",0,0,NA,"CorrectRejection"
"766","1","female",21,"right",3,"FFR",2,"Upright",66,"Connus_dis029",0,0,NA,"CorrectRejection"
"767","1","female",21,"right",3,"FFR",2,"Upright",67,"Connus_dis009",0,0,NA,"CorrectRejection"
"768","1","female",21,"right",3,"FFR",2,"Upright",68,"Connus_dis073",0,0,NA,"CorrectRejection"
"769","1","female",21,"right",3,"FFR",2,"Upright",69,"Connus_cib084",1,0,NA,"Missed"
"770","1","female",21,"right",3,"FFR",2,"Upright",70,"Connus_cib099",1,1,478,"Hit"
"771","1","female",21,"right",3,"FFR",2,"Upright",71,"Connus_cib034",1,0,NA,"Missed"
"772","1","female",21,"right",3,"FFR",2,"Upright",72,"Connus_cib025",1,1,494,"Hit"
"773","1","female",21,"right",3,"FFR",2,"Upright",73,"Connus_cib031",1,0,NA,"Missed"
"774","1","female",21,"right",3,"FFR",2,"Upright",74,"Connus_cib085",1,0,NA,"Missed"
"775","1","female",21,"right",3,"FFR",2,"Upright",75,"Connus_dis105",0,0,NA,"CorrectRejection"
"776","1","female",21,"right",3,"FFR",2,"Upright",76,"Connus_cib088",1,1,519,"Hit"
"777","1","female",21,"right",3,"FFR",2,"Upright",77,"Connus_dis019",0,0,NA,"CorrectRejection"
"778","1","female",21,"right",3,"FFR",2,"Upright",78,"Connus_cib092",1,1,534,"Hit"
"779","1","female",21,"right",3,"FFR",2,"Upright",79,"Connus_cib019",1,1,431,"Hit"
"780","1","female",21,"right",3,"FFR",2,"Upright",80,"Connus_cib096",1,1,477,"Hit"
"781","1","female",21,"right",3,"FFR",2,"Upright",81,"Connus_cib087",1,1,452,"Hit"
"782","1","female",21,"right",3,"FFR",2,"Upright",82,"Connus_dis023",0,0,NA,"CorrectRejection"
"783","1","female",21,"right",3,"FFR",2,"Upright",83,"Connus_cib098",1,0,NA,"Missed"
"784","1","female",21,"right",3,"FFR",2,"Upright",84,"Connus_dis117",0,0,NA,"CorrectRejection"
"785","1","female",21,"right",3,"FFR",2,"Upright",85,"Connus_cib030",1,1,397,"Hit"
"786","1","female",21,"right",3,"FFR",2,"Upright",86,"Connus_dis129",0,0,NA,"CorrectRejection"
"787","1","female",21,"right",3,"FFR",2,"Upright",87,"Connus_dis065",0,0,NA,"CorrectRejection"
"788","1","female",21,"right",3,"FFR",2,"Upright",88,"Connus_cib089",1,1,390,"Hit"
"789","1","female",21,"right",3,"FFR",2,"Upright",89,"Connus_dis101",0,0,NA,"CorrectRejection"
"790","1","female",21,"right",3,"FFR",2,"Upright",90,"Connus_cib080",1,1,458,"Hit"
"791","1","female",21,"right",3,"FFR",2,"Upright",91,"Connus_dis003",0,0,NA,"CorrectRejection"
"792","1","female",21,"right",3,"FFR",2,"Upright",92,"Connus_dis139",0,0,NA,"CorrectRejection"
"793","1","female",21,"right",3,"FFR",2,"Upright",93,"Connus_cib005",1,1,524,"Hit"
"794","1","female",21,"right",3,"FFR",2,"Upright",94,"Connus_cib086",1,0,NA,"Missed"
"795","1","female",21,"right",3,"FFR",2,"Upright",95,"Connus_dis041",0,0,NA,"CorrectRejection"
"796","1","female",21,"right",3,"FFR",2,"Upright",96,"Connus_cib091",1,1,407,"Hit"
"797","1","female",21,"right",3,"FFR",2,"Upright",97,"Connus_dis063",0,0,NA,"CorrectRejection"
"798","1","female",21,"right",3,"FFR",2,"Upright",98,"Connus_dis109",0,0,NA,"CorrectRejection"
"799","1","female",21,"right",3,"FFR",2,"Upright",99,"Connus_dis001",0,0,NA,"CorrectRejection"
"800","1","female",21,"right",3,"FFR",2,"Upright",100,"Connus_cib008",1,0,NA,"Missed"
"801","1","female",21,"right",3,"FFR",2,"Upright",101,"Connus_dis011",0,0,NA,"CorrectRejection"
"802","1","female",21,"right",3,"FFR",2,"Upright",102,"Connus_dis121",0,0,NA,"CorrectRejection"
"803","1","female",21,"right",3,"FFR",2,"Upright",103,"Connus_dis089",0,0,NA,"CorrectRejection"
"804","1","female",21,"right",3,"FFR",2,"Upright",104,"Connus_dis039",0,0,NA,"CorrectRejection"
"805","1","female",21,"right",3,"FFR",2,"Upright",105,"Connus_cib076",1,0,NA,"Missed"
"806","1","female",21,"right",3,"FFR",2,"Upright",106,"Connus_cib023",1,1,502,"Hit"
"807","1","female",21,"right",3,"FFR",2,"Upright",107,"Connus_cib029",1,1,424,"Hit"
"808","1","female",21,"right",3,"FFR",2,"Upright",108,"Connus_dis119",0,1,572,"FalseAlarm"
"809","1","female",21,"right",3,"FFR",2,"Upright",109,"Connus_dis069",0,1,471,"FalseAlarm"
"810","1","female",21,"right",3,"FFR",2,"Upright",110,"Connus_cib007",1,1,495,"Hit"
"811","1","female",21,"right",3,"FFR",2,"Upright",111,"Connus_cib095",1,1,496,"Hit"
"812","1","female",21,"right",3,"FFR",2,"Upright",112,"Connus_cib097",1,1,407,"Hit"
"813","1","female",21,"right",3,"FFR",2,"Upright",113,"Connus_dis013",0,0,NA,"CorrectRejection"
"814","1","female",21,"right",3,"FFR",2,"Upright",114,"Connus_dis081",0,0,NA,"CorrectRejection"
"815","1","female",21,"right",3,"FFR",2,"Upright",115,"Connus_dis085",0,0,NA,"CorrectRejection"
"816","1","female",21,"right",3,"FFR",2,"Upright",116,"Connus_cib074",1,0,NA,"Missed"
"817","1","female",21,"right",3,"FFR",2,"Upright",117,"Connus_cib075",1,1,477,"Hit"
"818","1","female",21,"right",3,"FFR",2,"Upright",118,"Connus_dis045",0,0,NA,"CorrectRejection"
"819","1","female",21,"right",3,"FFR",2,"Upright",119,"Connus_dis047",0,0,NA,"CorrectRejection"
"820","1","female",21,"right",3,"FFR",2,"Upright",120,"Connus_dis035",0,0,NA,"CorrectRejection"
"821","1","female",21,"right",3,"FFR",2,"Upright",121,"Connus_cib093",1,0,NA,"Missed"
"822","1","female",21,"right",3,"FFR",2,"Upright",122,"Connus_cib014",1,0,NA,"Missed"
"823","1","female",21,"right",3,"FFR",2,"Upright",123,"Connus_cib094",1,1,422,"Hit"
"824","1","female",21,"right",3,"FFR",2,"Upright",124,"Connus_cib010",1,1,451,"Hit"
"825","1","female",21,"right",3,"FFR",2,"Upright",125,"Connus_cib078",1,1,490,"Hit"
"826","1","female",21,"right",3,"FFR",2,"Upright",126,"Connus_dis127",0,0,NA,"CorrectRejection"
"827","1","female",21,"right",3,"FFR",2,"Upright",127,"Connus_dis099",0,0,NA,"CorrectRejection"
"828","1","female",21,"right",3,"FFR",2,"Upright",128,"Connus_dis095",0,0,NA,"CorrectRejection"
"829","1","female",21,"right",3,"FFR",2,"Upright",129,"Connus_cib006",1,1,487,"Hit"
"830","1","female",21,"right",3,"FFR",2,"Upright",130,"Connus_dis083",0,0,NA,"CorrectRejection"
"831","1","female",21,"right",3,"FFR",2,"Upright",131,"Connus_cib017",1,0,NA,"Missed"
"832","1","female",21,"right",3,"FFR",2,"Upright",132,"Connus_dis031",0,0,NA,"CorrectRejection"
"833","1","female",21,"right",3,"FFR",2,"Upright",133,"Connus_cib011",1,1,593,"Hit"
"834","1","female",21,"right",3,"FFR",2,"Upright",134,"Connus_cib103",1,1,488,"Hit"
"835","1","female",21,"right",3,"FFR",2,"Upright",135,"Connus_cib071",1,1,405,"Hit"
"836","1","female",21,"right",3,"FFR",2,"Upright",136,"Connus_dis059",0,1,428,"FalseAlarm"
"837","1","female",21,"right",3,"FFR",2,"Upright",137,"Connus_dis133",0,0,NA,"CorrectRejection"
"838","1","female",21,"right",3,"FFR",2,"Upright",138,"Connus_dis091",0,1,467,"FalseAlarm"
"839","1","female",21,"right",3,"FFR",2,"Upright",139,"Connus_dis071",0,0,NA,"CorrectRejection"
"840","1","female",21,"right",3,"FFR",2,"Upright",140,"Connus_dis067",0,0,NA,"CorrectRejection"
"841","2","female",23,"right",1,"IFR",1,"Upright",1,"Sarkozy_cib03",1,1,477,"Hit"
"842","2","female",23,"right",1,"IFR",1,"Upright",2,"Sarkozy_dis50",0,0,NA,"CorrectRejection"
"843","2","female",23,"right",1,"IFR",1,"Upright",3,"Sarkozy_cib61",1,1,427,"Hit"
"844","2","female",23,"right",1,"IFR",1,"Upright",4,"Sarkozy_dis07",0,0,NA,"CorrectRejection"
"845","2","female",23,"right",1,"IFR",1,"Upright",5,"Sarkozy_dis15",0,0,NA,"CorrectRejection"
"846","2","female",23,"right",1,"IFR",1,"Upright",6,"Sarkozy_dis55",0,0,NA,"CorrectRejection"
"847","2","female",23,"right",1,"IFR",1,"Upright",7,"Sarkozy_dis23",0,0,NA,"CorrectRejection"
"848","2","female",23,"right",1,"IFR",1,"Upright",8,"Sarkozy_cib69",1,1,386,"Hit"
"849","2","female",23,"right",1,"IFR",1,"Upright",9,"Sarkozy_cib27",1,1,366,"Hit"
"850","2","female",23,"right",1,"IFR",1,"Upright",10,"Sarkozy_cib04",1,1,336,"Hit"
"851","2","female",23,"right",1,"IFR",1,"Upright",11,"Sarkozy_dis26",0,0,NA,"CorrectRejection"
"852","2","female",23,"right",1,"IFR",1,"Upright",12,"Sarkozy_dis52",0,0,NA,"CorrectRejection"
"853","2","female",23,"right",1,"IFR",1,"Upright",13,"Sarkozy_dis12",0,0,NA,"CorrectRejection"
"854","2","female",23,"right",1,"IFR",1,"Upright",14,"Sarkozy_dis17",0,0,NA,"CorrectRejection"
"855","2","female",23,"right",1,"IFR",1,"Upright",15,"Sarkozy_cib20",1,1,421,"Hit"
"856","2","female",23,"right",1,"IFR",1,"Upright",16,"Sarkozy_cib36",1,1,432,"Hit"
"857","2","female",23,"right",1,"IFR",1,"Upright",17,"Sarkozy_dis66",0,0,NA,"CorrectRejection"
"858","2","female",23,"right",1,"IFR",1,"Upright",18,"Sarkozy_cib22",1,1,347,"Hit"
"859","2","female",23,"right",1,"IFR",1,"Upright",19,"Sarkozy_dis56",0,0,NA,"CorrectRejection"
"860","2","female",23,"right",1,"IFR",1,"Upright",20,"Sarkozy_cib67",1,1,343,"Hit"
"861","2","female",23,"right",1,"IFR",1,"Upright",21,"Sarkozy_dis51",0,0,NA,"CorrectRejection"
"862","2","female",23,"right",1,"IFR",1,"Upright",22,"Sarkozy_dis67",0,0,NA,"CorrectRejection"
"863","2","female",23,"right",1,"IFR",1,"Upright",23,"Sarkozy_cib55",1,1,430,"Hit"
"864","2","female",23,"right",1,"IFR",1,"Upright",24,"Sarkozy_cib45",1,1,412,"Hit"
"865","2","female",23,"right",1,"IFR",1,"Upright",25,"Sarkozy_dis10",0,0,NA,"CorrectRejection"
"866","2","female",23,"right",1,"IFR",1,"Upright",26,"Sarkozy_dis06",0,1,230,"FalseAlarm"
"867","2","female",23,"right",1,"IFR",1,"Upright",27,"Sarkozy_dis31",0,0,NA,"CorrectRejection"
"868","2","female",23,"right",1,"IFR",1,"Upright",28,"Sarkozy_cib33",1,1,402,"Hit"
"869","2","female",23,"right",1,"IFR",1,"Upright",29,"Sarkozy_cib46",1,1,412,"Hit"
"870","2","female",23,"right",1,"IFR",1,"Upright",30,"Sarkozy_cib30",1,1,338,"Hit"
"871","2","female",23,"right",1,"IFR",1,"Upright",31,"Sarkozy_cib57",1,1,329,"Hit"
"872","2","female",23,"right",1,"IFR",1,"Upright",32,"Sarkozy_dis58",0,0,NA,"CorrectRejection"
"873","2","female",23,"right",1,"IFR",1,"Upright",33,"Sarkozy_cib08",1,1,351,"Hit"
"874","2","female",23,"right",1,"IFR",1,"Upright",34,"Sarkozy_cib17",1,1,324,"Hit"
"875","2","female",23,"right",1,"IFR",1,"Upright",35,"Sarkozy_dis11",0,0,NA,"CorrectRejection"
"876","2","female",23,"right",1,"IFR",1,"Upright",36,"Sarkozy_dis27",0,0,NA,"CorrectRejection"
"877","2","female",23,"right",1,"IFR",1,"Upright",37,"Sarkozy_cib24",1,1,354,"Hit"
"878","2","female",23,"right",1,"IFR",1,"Upright",38,"Sarkozy_cib56",1,1,387,"Hit"
"879","2","female",23,"right",1,"IFR",1,"Upright",39,"Sarkozy_dis20",0,0,NA,"CorrectRejection"
"880","2","female",23,"right",1,"IFR",1,"Upright",40,"Sarkozy_dis68",0,0,NA,"CorrectRejection"
"881","2","female",23,"right",1,"IFR",1,"Upright",41,"Sarkozy_cib01",1,1,341,"Hit"
"882","2","female",23,"right",1,"IFR",1,"Upright",42,"Sarkozy_dis01",0,0,NA,"CorrectRejection"
"883","2","female",23,"right",1,"IFR",1,"Upright",43,"Sarkozy_dis21",0,0,NA,"CorrectRejection"
"884","2","female",23,"right",1,"IFR",1,"Upright",44,"Sarkozy_dis33",0,0,NA,"CorrectRejection"
"885","2","female",23,"right",1,"IFR",1,"Upright",45,"Sarkozy_dis34",0,0,NA,"CorrectRejection"
"886","2","female",23,"right",1,"IFR",1,"Upright",46,"Sarkozy_dis19",0,0,NA,"CorrectRejection"
"887","2","female",23,"right",1,"IFR",1,"Upright",47,"Sarkozy_dis57",0,0,NA,"CorrectRejection"
"888","2","female",23,"right",1,"IFR",1,"Upright",48,"Sarkozy_dis02",0,0,NA,"CorrectRejection"
"889","2","female",23,"right",1,"IFR",1,"Upright",49,"Sarkozy_cib38",1,1,405,"Hit"
"890","2","female",23,"right",1,"IFR",1,"Upright",50,"Sarkozy_dis36",0,0,NA,"CorrectRejection"
"891","2","female",23,"right",1,"IFR",1,"Upright",51,"Sarkozy_dis60",0,0,NA,"CorrectRejection"
"892","2","female",23,"right",1,"IFR",1,"Upright",52,"Sarkozy_cib41",1,1,443,"Hit"
"893","2","female",23,"right",1,"IFR",1,"Upright",53,"Sarkozy_dis30",0,0,NA,"CorrectRejection"
"894","2","female",23,"right",1,"IFR",1,"Upright",54,"Sarkozy_cib02",1,1,396,"Hit"
"895","2","female",23,"right",1,"IFR",1,"Upright",55,"Sarkozy_cib64",1,1,426,"Hit"
"896","2","female",23,"right",1,"IFR",1,"Upright",56,"Sarkozy_cib26",1,1,350,"Hit"
"897","2","female",23,"right",1,"IFR",1,"Upright",57,"Sarkozy_cib10",1,1,270,"Hit"
"898","2","female",23,"right",1,"IFR",1,"Upright",58,"Sarkozy_dis46",0,0,NA,"CorrectRejection"
"899","2","female",23,"right",1,"IFR",1,"Upright",59,"Sarkozy_cib19",1,1,353,"Hit"
"900","2","female",23,"right",1,"IFR",1,"Upright",60,"Sarkozy_cib23",1,1,411,"Hit"
"901","2","female",23,"right",1,"IFR",1,"Upright",61,"Sarkozy_cib66",1,1,479,"Hit"
"902","2","female",23,"right",1,"IFR",1,"Upright",62,"Sarkozy_cib12",1,1,326,"Hit"
"903","2","female",23,"right",1,"IFR",1,"Upright",63,"Sarkozy_dis43",0,0,NA,"CorrectRejection"
"904","2","female",23,"right",1,"IFR",1,"Upright",64,"Sarkozy_cib35",1,1,330,"Hit"
"905","2","female",23,"right",1,"IFR",1,"Upright",65,"Sarkozy_dis41",0,0,NA,"CorrectRejection"
"906","2","female",23,"right",1,"IFR",1,"Upright",66,"Sarkozy_cib62",1,1,356,"Hit"
"907","2","female",23,"right",1,"IFR",1,"Upright",67,"Sarkozy_cib28",1,1,350,"Hit"
"908","2","female",23,"right",1,"IFR",1,"Upright",68,"Sarkozy_dis42",0,0,NA,"CorrectRejection"
"909","2","female",23,"right",1,"IFR",1,"Upright",69,"Sarkozy_cib48",1,1,335,"Hit"
"910","2","female",23,"right",1,"IFR",1,"Upright",70,"Sarkozy_cib18",1,1,378,"Hit"
"911","2","female",23,"right",1,"IFR",1,"Upright",71,"Sarkozy_dis64",0,0,NA,"CorrectRejection"
"912","2","female",23,"right",1,"IFR",1,"Upright",72,"Sarkozy_cib42",1,1,324,"Hit"
"913","2","female",23,"right",1,"IFR",1,"Upright",73,"Sarkozy_cib40",1,1,337,"Hit"
"914","2","female",23,"right",1,"IFR",1,"Upright",74,"Sarkozy_dis61",0,0,NA,"CorrectRejection"
"915","2","female",23,"right",1,"IFR",1,"Upright",75,"Sarkozy_dis48",0,0,NA,"CorrectRejection"
"916","2","female",23,"right",1,"IFR",1,"Upright",76,"Sarkozy_dis08",0,0,NA,"CorrectRejection"
"917","2","female",23,"right",1,"IFR",1,"Upright",77,"Sarkozy_cib47",1,1,356,"Hit"
"918","2","female",23,"right",1,"IFR",1,"Upright",78,"Sarkozy_dis05",0,0,NA,"CorrectRejection"
"919","2","female",23,"right",1,"IFR",1,"Upright",79,"Sarkozy_dis45",0,0,NA,"CorrectRejection"
"920","2","female",23,"right",1,"IFR",1,"Upright",80,"Sarkozy_cib09",1,1,325,"Hit"
"921","2","female",23,"right",1,"IFR",1,"Upright",81,"Sarkozy_dis25",0,0,NA,"CorrectRejection"
"922","2","female",23,"right",1,"IFR",1,"Upright",82,"Sarkozy_cib06",1,1,509,"Hit"
"923","2","female",23,"right",1,"IFR",1,"Upright",83,"Sarkozy_cib05",1,1,361,"Hit"
"924","2","female",23,"right",1,"IFR",1,"Upright",84,"Sarkozy_cib52",1,1,322,"Hit"
"925","2","female",23,"right",1,"IFR",1,"Upright",85,"Sarkozy_cib59",1,1,291,"Hit"
"926","2","female",23,"right",1,"IFR",1,"Upright",86,"Sarkozy_dis32",0,0,NA,"CorrectRejection"
"927","2","female",23,"right",1,"IFR",1,"Upright",87,"Sarkozy_cib43",1,1,341,"Hit"
"928","2","female",23,"right",1,"IFR",1,"Upright",88,"Sarkozy_dis22",0,0,NA,"CorrectRejection"
"929","2","female",23,"right",1,"IFR",1,"Upright",89,"Sarkozy_dis28",0,0,NA,"CorrectRejection"
"930","2","female",23,"right",1,"IFR",1,"Upright",90,"Sarkozy_dis54",0,0,NA,"CorrectRejection"
"931","2","female",23,"right",1,"IFR",1,"Upright",91,"Sarkozy_dis14",0,0,NA,"CorrectRejection"
"932","2","female",23,"right",1,"IFR",1,"Upright",92,"Sarkozy_dis70",0,0,NA,"CorrectRejection"
"933","2","female",23,"right",1,"IFR",1,"Upright",93,"Sarkozy_cib65",1,1,373,"Hit"
"934","2","female",23,"right",1,"IFR",1,"Upright",94,"Sarkozy_dis24",0,0,NA,"CorrectRejection"
"935","2","female",23,"right",1,"IFR",1,"Upright",95,"Sarkozy_dis47",0,0,NA,"CorrectRejection"
"936","2","female",23,"right",1,"IFR",1,"Upright",96,"Sarkozy_dis37",0,0,NA,"CorrectRejection"
"937","2","female",23,"right",1,"IFR",1,"Upright",97,"Sarkozy_cib37",1,1,362,"Hit"
"938","2","female",23,"right",1,"IFR",1,"Upright",98,"Sarkozy_dis49",0,0,NA,"CorrectRejection"
"939","2","female",23,"right",1,"IFR",1,"Upright",99,"Sarkozy_dis04",0,0,NA,"CorrectRejection"
"940","2","female",23,"right",1,"IFR",1,"Upright",100,"Sarkozy_cib31",1,1,388,"Hit"
"941","2","female",23,"right",1,"IFR",1,"Upright",101,"Sarkozy_cib58",1,1,399,"Hit"
"942","2","female",23,"right",1,"IFR",1,"Upright",102,"Sarkozy_cib49",1,1,326,"Hit"
"943","2","female",23,"right",1,"IFR",1,"Upright",103,"Sarkozy_dis44",0,0,NA,"CorrectRejection"
"944","2","female",23,"right",1,"IFR",1,"Upright",104,"Sarkozy_cib53",1,1,350,"Hit"
"945","2","female",23,"right",1,"IFR",1,"Upright",105,"Sarkozy_cib63",1,1,320,"Hit"
"946","2","female",23,"right",1,"IFR",1,"Upright",106,"Sarkozy_dis62",0,0,NA,"CorrectRejection"
"947","2","female",23,"right",1,"IFR",1,"Upright",107,"Sarkozy_cib70",1,1,385,"Hit"
"948","2","female",23,"right",1,"IFR",1,"Upright",108,"Sarkozy_cib11",1,1,331,"Hit"
"949","2","female",23,"right",1,"IFR",1,"Upright",109,"Sarkozy_dis29",0,0,NA,"CorrectRejection"
"950","2","female",23,"right",1,"IFR",1,"Upright",110,"Sarkozy_cib07",1,1,333,"Hit"
"951","2","female",23,"right",1,"IFR",1,"Upright",111,"Sarkozy_cib68",1,1,314,"Hit"
"952","2","female",23,"right",1,"IFR",1,"Upright",112,"Sarkozy_cib60",1,1,306,"Hit"
"953","2","female",23,"right",1,"IFR",1,"Upright",113,"Sarkozy_dis65",0,0,NA,"CorrectRejection"
"954","2","female",23,"right",1,"IFR",1,"Upright",114,"Sarkozy_cib32",1,1,320,"Hit"
"955","2","female",23,"right",1,"IFR",1,"Upright",115,"Sarkozy_cib29",1,1,280,"Hit"
"956","2","female",23,"right",1,"IFR",1,"Upright",116,"Sarkozy_dis18",0,0,NA,"CorrectRejection"
"957","2","female",23,"right",1,"IFR",1,"Upright",117,"Sarkozy_dis16",0,0,NA,"CorrectRejection"
"958","2","female",23,"right",1,"IFR",1,"Upright",118,"Sarkozy_cib15",1,1,427,"Hit"
"959","2","female",23,"right",1,"IFR",1,"Upright",119,"Sarkozy_cib21",1,1,334,"Hit"
"960","2","female",23,"right",1,"IFR",1,"Upright",120,"Sarkozy_dis39",0,0,NA,"CorrectRejection"
"961","2","female",23,"right",1,"IFR",1,"Upright",121,"Sarkozy_dis53",0,0,NA,"CorrectRejection"
"962","2","female",23,"right",1,"IFR",1,"Upright",122,"Sarkozy_cib44",1,1,320,"Hit"
"963","2","female",23,"right",1,"IFR",1,"Upright",123,"Sarkozy_cib13",1,1,379,"Hit"
"964","2","female",23,"right",1,"IFR",1,"Upright",124,"Sarkozy_cib16",1,1,291,"Hit"
"965","2","female",23,"right",1,"IFR",1,"Upright",125,"Sarkozy_dis09",0,0,NA,"CorrectRejection"
"966","2","female",23,"right",1,"IFR",1,"Upright",126,"Sarkozy_dis13",0,0,NA,"CorrectRejection"
"967","2","female",23,"right",1,"IFR",1,"Upright",127,"Sarkozy_dis03",0,0,NA,"CorrectRejection"
"968","2","female",23,"right",1,"IFR",1,"Upright",128,"Sarkozy_cib14",1,1,429,"Hit"
"969","2","female",23,"right",1,"IFR",1,"Upright",129,"Sarkozy_cib54",1,1,329,"Hit"
"970","2","female",23,"right",1,"IFR",1,"Upright",130,"Sarkozy_dis40",0,1,285,"FalseAlarm"
"971","2","female",23,"right",1,"IFR",1,"Upright",131,"Sarkozy_dis35",0,0,NA,"CorrectRejection"
"972","2","female",23,"right",1,"IFR",1,"Upright",132,"Sarkozy_cib51",1,1,358,"Hit"
"973","2","female",23,"right",1,"IFR",1,"Upright",133,"Sarkozy_dis69",0,0,NA,"CorrectRejection"
"974","2","female",23,"right",1,"IFR",1,"Upright",134,"Sarkozy_dis63",0,0,NA,"CorrectRejection"
"975","2","female",23,"right",1,"IFR",1,"Upright",135,"Sarkozy_cib34",1,1,501,"Hit"
"976","2","female",23,"right",1,"IFR",1,"Upright",136,"Sarkozy_cib25",1,1,381,"Hit"
"977","2","female",23,"right",1,"IFR",1,"Upright",137,"Sarkozy_cib39",1,1,341,"Hit"
"978","2","female",23,"right",1,"IFR",1,"Upright",138,"Sarkozy_dis38",0,1,427,"FalseAlarm"
"979","2","female",23,"right",1,"IFR",1,"Upright",139,"Sarkozy_dis59",0,0,NA,"CorrectRejection"
"980","2","female",23,"right",1,"IFR",1,"Upright",140,"Sarkozy_cib50",1,1,344,"Hit"
"981","2","female",23,"right",1,"IFR",2,"Inverted",1,"Johnny_cib65",1,0,NA,"Missed"
"982","2","female",23,"right",1,"IFR",2,"Inverted",2,"Johnny_dis61",0,0,NA,"CorrectRejection"
"983","2","female",23,"right",1,"IFR",2,"Inverted",3,"Johnny_cib56",1,1,544,"Hit"
"984","2","female",23,"right",1,"IFR",2,"Inverted",4,"Johnny_dis15",0,0,NA,"CorrectRejection"
"985","2","female",23,"right",1,"IFR",2,"Inverted",5,"Johnny_dis41",0,0,NA,"CorrectRejection"
"986","2","female",23,"right",1,"IFR",2,"Inverted",6,"Johnny_cib13",1,1,414,"Hit"
"987","2","female",23,"right",1,"IFR",2,"Inverted",7,"Johnny_cib17",1,1,407,"Hit"
"988","2","female",23,"right",1,"IFR",2,"Inverted",8,"Johnny_cib24",1,1,543,"Hit"
"989","2","female",23,"right",1,"IFR",2,"Inverted",9,"Johnny_cib10",1,1,353,"Hit"
"990","2","female",23,"right",1,"IFR",2,"Inverted",10,"Johnny_cib05",1,1,361,"Hit"
"991","2","female",23,"right",1,"IFR",2,"Inverted",11,"Johnny_dis70",0,0,NA,"CorrectRejection"
"992","2","female",23,"right",1,"IFR",2,"Inverted",12,"Johnny_dis63",0,0,NA,"CorrectRejection"
"993","2","female",23,"right",1,"IFR",2,"Inverted",13,"Johnny_cib36",1,1,513,"Hit"
"994","2","female",23,"right",1,"IFR",2,"Inverted",14,"Johnny_dis51",0,0,NA,"CorrectRejection"
"995","2","female",23,"right",1,"IFR",2,"Inverted",15,"Johnny_dis19",0,0,NA,"CorrectRejection"
"996","2","female",23,"right",1,"IFR",2,"Inverted",16,"Johnny_cib58",1,1,359,"Hit"
"997","2","female",23,"right",1,"IFR",2,"Inverted",17,"Johnny_dis06",0,0,NA,"CorrectRejection"
"998","2","female",23,"right",1,"IFR",2,"Inverted",18,"Johnny_dis14",0,0,NA,"CorrectRejection"
"999","2","female",23,"right",1,"IFR",2,"Inverted",19,"Johnny_cib34",1,1,354,"Hit"
"1000","2","female",23,"right",1,"IFR",2,"Inverted",20,"Johnny_dis58",0,0,NA,"CorrectRejection"
"1001","2","female",23,"right",1,"IFR",2,"Inverted",21,"Johnny_dis60",0,0,NA,"CorrectRejection"
"1002","2","female",23,"right",1,"IFR",2,"Inverted",22,"Johnny_cib03",1,1,350,"Hit"
"1003","2","female",23,"right",1,"IFR",2,"Inverted",23,"Johnny_dis40",0,0,NA,"CorrectRejection"
"1004","2","female",23,"right",1,"IFR",2,"Inverted",24,"Johnny_dis33",0,0,NA,"CorrectRejection"
"1005","2","female",23,"right",1,"IFR",2,"Inverted",25,"Johnny_dis17",0,0,NA,"CorrectRejection"
"1006","2","female",23,"right",1,"IFR",2,"Inverted",26,"Johnny_cib04",1,1,417,"Hit"
"1007","2","female",23,"right",1,"IFR",2,"Inverted",27,"Johnny_cib39",1,1,427,"Hit"
"1008","2","female",23,"right",1,"IFR",2,"Inverted",28,"Johnny_dis39",0,0,NA,"CorrectRejection"
"1009","2","female",23,"right",1,"IFR",2,"Inverted",29,"Johnny_dis50",0,0,NA,"CorrectRejection"
"1010","2","female",23,"right",1,"IFR",2,"Inverted",30,"Johnny_dis36",0,0,NA,"CorrectRejection"
"1011","2","female",23,"right",1,"IFR",2,"Inverted",31,"Johnny_dis07",0,0,NA,"CorrectRejection"
"1012","2","female",23,"right",1,"IFR",2,"Inverted",32,"Johnny_dis55",0,0,NA,"CorrectRejection"
"1013","2","female",23,"right",1,"IFR",2,"Inverted",33,"Johnny_dis65",0,0,NA,"CorrectRejection"
"1014","2","female",23,"right",1,"IFR",2,"Inverted",34,"Johnny_cib42",1,1,424,"Hit"
"1015","2","female",23,"right",1,"IFR",2,"Inverted",35,"Johnny_cib62",1,1,374,"Hit"
"1016","2","female",23,"right",1,"IFR",2,"Inverted",36,"Johnny_cib40",1,1,375,"Hit"
"1017","2","female",23,"right",1,"IFR",2,"Inverted",37,"Johnny_cib28",1,0,NA,"Missed"
"1018","2","female",23,"right",1,"IFR",2,"Inverted",38,"Johnny_cib70",1,1,381,"Hit"
"1019","2","female",23,"right",1,"IFR",2,"Inverted",39,"Johnny_dis43",0,0,NA,"CorrectRejection"
"1020","2","female",23,"right",1,"IFR",2,"Inverted",40,"Johnny_cib20",1,1,422,"Hit"
"1021","2","female",23,"right",1,"IFR",2,"Inverted",41,"Johnny_dis20",0,0,NA,"CorrectRejection"
"1022","2","female",23,"right",1,"IFR",2,"Inverted",42,"Johnny_dis67",0,0,NA,"CorrectRejection"
"1023","2","female",23,"right",1,"IFR",2,"Inverted",43,"Johnny_cib47",1,1,372,"Hit"
"1024","2","female",23,"right",1,"IFR",2,"Inverted",44,"Johnny_dis29",0,0,NA,"CorrectRejection"
"1025","2","female",23,"right",1,"IFR",2,"Inverted",45,"Johnny_cib66",1,1,381,"Hit"
"1026","2","female",23,"right",1,"IFR",2,"Inverted",46,"Johnny_cib53",1,1,409,"Hit"
"1027","2","female",23,"right",1,"IFR",2,"Inverted",47,"Johnny_cib60",1,1,407,"Hit"
"1028","2","female",23,"right",1,"IFR",2,"Inverted",48,"Johnny_cib44",1,0,NA,"Missed"
"1029","2","female",23,"right",1,"IFR",2,"Inverted",49,"Johnny_dis46",0,0,NA,"CorrectRejection"
"1030","2","female",23,"right",1,"IFR",2,"Inverted",50,"Johnny_cib25",1,1,403,"Hit"
"1031","2","female",23,"right",1,"IFR",2,"Inverted",51,"Johnny_cib63",1,1,385,"Hit"
"1032","2","female",23,"right",1,"IFR",2,"Inverted",52,"Johnny_dis27",0,0,NA,"CorrectRejection"
"1033","2","female",23,"right",1,"IFR",2,"Inverted",53,"Johnny_dis57",0,0,NA,"CorrectRejection"
"1034","2","female",23,"right",1,"IFR",2,"Inverted",54,"Johnny_dis52",0,0,NA,"CorrectRejection"
"1035","2","female",23,"right",1,"IFR",2,"Inverted",55,"Johnny_dis12",0,0,NA,"CorrectRejection"
"1036","2","female",23,"right",1,"IFR",2,"Inverted",56,"Johnny_cib57",1,1,392,"Hit"
"1037","2","female",23,"right",1,"IFR",2,"Inverted",57,"Johnny_dis05",0,0,NA,"CorrectRejection"
"1038","2","female",23,"right",1,"IFR",2,"Inverted",58,"Johnny_dis09",0,0,NA,"CorrectRejection"
"1039","2","female",23,"right",1,"IFR",2,"Inverted",59,"Johnny_cib18",1,1,409,"Hit"
"1040","2","female",23,"right",1,"IFR",2,"Inverted",60,"Johnny_cib09",1,1,365,"Hit"
"1041","2","female",23,"right",1,"IFR",2,"Inverted",61,"Johnny_cib69",1,1,455,"Hit"
"1042","2","female",23,"right",1,"IFR",2,"Inverted",62,"Johnny_dis64",0,0,NA,"CorrectRejection"
"1043","2","female",23,"right",1,"IFR",2,"Inverted",63,"Johnny_cib15",1,1,412,"Hit"
"1044","2","female",23,"right",1,"IFR",2,"Inverted",64,"Johnny_dis62",0,1,403,"FalseAlarm"
"1045","2","female",23,"right",1,"IFR",2,"Inverted",65,"Johnny_dis10",0,0,NA,"CorrectRejection"
"1046","2","female",23,"right",1,"IFR",2,"Inverted",66,"Johnny_cib43",1,1,411,"Hit"
"1047","2","female",23,"right",1,"IFR",2,"Inverted",67,"Johnny_cib46",1,1,394,"Hit"
"1048","2","female",23,"right",1,"IFR",2,"Inverted",68,"Johnny_dis44",0,0,NA,"CorrectRejection"
"1049","2","female",23,"right",1,"IFR",2,"Inverted",69,"Johnny_dis49",0,1,411,"FalseAlarm"
"1050","2","female",23,"right",1,"IFR",2,"Inverted",70,"Johnny_cib01",1,1,409,"Hit"
"1051","2","female",23,"right",1,"IFR",2,"Inverted",71,"Johnny_cib33",1,1,386,"Hit"
"1052","2","female",23,"right",1,"IFR",2,"Inverted",72,"Johnny_dis66",0,0,NA,"CorrectRejection"
"1053","2","female",23,"right",1,"IFR",2,"Inverted",73,"Johnny_dis30",0,1,376,"FalseAlarm"
"1054","2","female",23,"right",1,"IFR",2,"Inverted",74,"Johnny_dis35",0,0,NA,"CorrectRejection"
"1055","2","female",23,"right",1,"IFR",2,"Inverted",75,"Johnny_cib64",1,1,398,"Hit"
"1056","2","female",23,"right",1,"IFR",2,"Inverted",76,"Johnny_cib48",1,1,436,"Hit"
"1057","2","female",23,"right",1,"IFR",2,"Inverted",77,"Johnny_cib50",1,1,449,"Hit"
"1058","2","female",23,"right",1,"IFR",2,"Inverted",78,"Johnny_cib07",1,0,NA,"Missed"
"1059","2","female",23,"right",1,"IFR",2,"Inverted",79,"Johnny_dis21",0,0,NA,"CorrectRejection"
"1060","2","female",23,"right",1,"IFR",2,"Inverted",80,"Johnny_dis32",0,0,NA,"CorrectRejection"
"1061","2","female",23,"right",1,"IFR",2,"Inverted",81,"Johnny_dis11",0,0,NA,"CorrectRejection"
"1062","2","female",23,"right",1,"IFR",2,"Inverted",82,"Johnny_dis28",0,0,NA,"CorrectRejection"
"1063","2","female",23,"right",1,"IFR",2,"Inverted",83,"Johnny_dis02",0,0,NA,"CorrectRejection"
"1064","2","female",23,"right",1,"IFR",2,"Inverted",84,"Johnny_dis42",0,0,NA,"CorrectRejection"
"1065","2","female",23,"right",1,"IFR",2,"Inverted",85,"Johnny_dis16",0,0,NA,"CorrectRejection"
"1066","2","female",23,"right",1,"IFR",2,"Inverted",86,"Johnny_cib54",1,1,476,"Hit"
"1067","2","female",23,"right",1,"IFR",2,"Inverted",87,"Johnny_dis34",0,0,NA,"CorrectRejection"
"1068","2","female",23,"right",1,"IFR",2,"Inverted",88,"Johnny_cib30",1,1,472,"Hit"
"1069","2","female",23,"right",1,"IFR",2,"Inverted",89,"Johnny_cib19",1,1,412,"Hit"
"1070","2","female",23,"right",1,"IFR",2,"Inverted",90,"Johnny_dis25",0,0,NA,"CorrectRejection"
"1071","2","female",23,"right",1,"IFR",2,"Inverted",91,"Johnny_cib49",1,1,417,"Hit"
"1072","2","female",23,"right",1,"IFR",2,"Inverted",92,"Johnny_dis45",0,0,NA,"CorrectRejection"
"1073","2","female",23,"right",1,"IFR",2,"Inverted",93,"Johnny_dis26",0,0,NA,"CorrectRejection"
"1074","2","female",23,"right",1,"IFR",2,"Inverted",94,"Johnny_cib37",1,1,440,"Hit"
"1075","2","female",23,"right",1,"IFR",2,"Inverted",95,"Johnny_cib22",1,1,380,"Hit"
"1076","2","female",23,"right",1,"IFR",2,"Inverted",96,"Johnny_dis56",0,0,NA,"CorrectRejection"
"1077","2","female",23,"right",1,"IFR",2,"Inverted",97,"Johnny_cib55",1,0,NA,"Missed"
"1078","2","female",23,"right",1,"IFR",2,"Inverted",98,"Johnny_dis31",0,0,NA,"CorrectRejection"
"1079","2","female",23,"right",1,"IFR",2,"Inverted",99,"Johnny_dis69",0,0,NA,"CorrectRejection"
"1080","2","female",23,"right",1,"IFR",2,"Inverted",100,"Johnny_dis38",0,0,NA,"CorrectRejection"
"1081","2","female",23,"right",1,"IFR",2,"Inverted",101,"Johnny_cib14",1,1,424,"Hit"
"1082","2","female",23,"right",1,"IFR",2,"Inverted",102,"Johnny_dis68",0,0,NA,"CorrectRejection"
"1083","2","female",23,"right",1,"IFR",2,"Inverted",103,"Johnny_cib41",1,1,464,"Hit"
"1084","2","female",23,"right",1,"IFR",2,"Inverted",104,"Johnny_dis54",0,0,NA,"CorrectRejection"
"1085","2","female",23,"right",1,"IFR",2,"Inverted",105,"Johnny_cib52",1,1,441,"Hit"
"1086","2","female",23,"right",1,"IFR",2,"Inverted",106,"Johnny_cib02",1,1,370,"Hit"
"1087","2","female",23,"right",1,"IFR",2,"Inverted",107,"Johnny_dis23",0,0,NA,"CorrectRejection"
"1088","2","female",23,"right",1,"IFR",2,"Inverted",108,"Johnny_cib23",1,1,395,"Hit"
"1089","2","female",23,"right",1,"IFR",2,"Inverted",109,"Johnny_dis59",0,0,NA,"CorrectRejection"
"1090","2","female",23,"right",1,"IFR",2,"Inverted",110,"Johnny_cib51",1,1,375,"Hit"
"1091","2","female",23,"right",1,"IFR",2,"Inverted",111,"Johnny_dis01",0,0,NA,"CorrectRejection"
"1092","2","female",23,"right",1,"IFR",2,"Inverted",112,"Johnny_cib12",1,1,350,"Hit"
"1093","2","female",23,"right",1,"IFR",2,"Inverted",113,"Johnny_cib67",1,1,434,"Hit"
"1094","2","female",23,"right",1,"IFR",2,"Inverted",114,"Johnny_cib35",1,1,408,"Hit"
"1095","2","female",23,"right",1,"IFR",2,"Inverted",115,"Johnny_cib38",1,1,382,"Hit"
"1096","2","female",23,"right",1,"IFR",2,"Inverted",116,"Johnny_cib26",1,1,348,"Hit"
"1097","2","female",23,"right",1,"IFR",2,"Inverted",117,"Johnny_cib16",1,1,352,"Hit"
"1098","2","female",23,"right",1,"IFR",2,"Inverted",118,"Johnny_cib27",1,1,390,"Hit"
"1099","2","female",23,"right",1,"IFR",2,"Inverted",119,"Johnny_cib68",1,1,381,"Hit"
"1100","2","female",23,"right",1,"IFR",2,"Inverted",120,"Johnny_dis22",0,0,NA,"CorrectRejection"
"1101","2","female",23,"right",1,"IFR",2,"Inverted",121,"Johnny_cib45",1,1,553,"Hit"
"1102","2","female",23,"right",1,"IFR",2,"Inverted",122,"Johnny_cib11",1,1,437,"Hit"
"1103","2","female",23,"right",1,"IFR",2,"Inverted",123,"Johnny_dis08",0,0,NA,"CorrectRejection"
"1104","2","female",23,"right",1,"IFR",2,"Inverted",124,"Johnny_cib29",1,1,363,"Hit"
"1105","2","female",23,"right",1,"IFR",2,"Inverted",125,"Johnny_cib61",1,0,NA,"Missed"
"1106","2","female",23,"right",1,"IFR",2,"Inverted",126,"Johnny_dis37",0,0,NA,"CorrectRejection"
"1107","2","female",23,"right",1,"IFR",2,"Inverted",127,"Johnny_dis18",0,0,NA,"CorrectRejection"
"1108","2","female",23,"right",1,"IFR",2,"Inverted",128,"Johnny_cib59",1,1,387,"Hit"
"1109","2","female",23,"right",1,"IFR",2,"Inverted",129,"Johnny_dis48",0,0,NA,"CorrectRejection"
"1110","2","female",23,"right",1,"IFR",2,"Inverted",130,"Johnny_cib21",1,1,363,"Hit"
"1111","2","female",23,"right",1,"IFR",2,"Inverted",131,"Johnny_cib06",1,1,374,"Hit"
"1112","2","female",23,"right",1,"IFR",2,"Inverted",132,"Johnny_dis24",0,0,NA,"CorrectRejection"
"1113","2","female",23,"right",1,"IFR",2,"Inverted",133,"Johnny_dis04",0,0,NA,"CorrectRejection"
